,participant,condition,block,trial,stimulus,stimulus_type,choice,rt,correct,N,n_targets,n_corrects,lure,n_recent_repetitions,n_recent_targets,n_recent_lures,n_recent_corrects,n_lures
1,P1,2-back,1,1,B,burn-in,,,False,2,10,25,False,,,,,0
2,P1,2-back,1,2,H,burn-in,,,False,2,10,25,False,,,,,0
3,P1,2-back,1,3,G,burn-in,,,False,2,10,25,False,,,,,0
4,P1,2-back,1,4,H,target,target,814.0,True,2,10,25,False,1.0,1.0,0.0,1.0,0
5,P1,2-back,1,5,Z,non-target,non-target,2300.0,True,2,10,25,False,1.0,1.0,0.0,2.0,0
6,P1,2-back,1,6,H,target,target,972.0,True,2,10,25,False,1.0,2.0,0.0,3.0,0
7,P1,2-back,1,7,W,non-target,non-target,1548.0,True,2,10,25,False,1.0,2.0,0.0,4.0,0
8,P1,2-back,1,8,Q,non-target,non-target,948.0,True,2,10,25,False,0.0,1.0,0.0,4.0,0
9,P1,2-back,1,9,V,non-target,non-target,1109.0,True,2,10,25,False,0.0,1.0,0.0,4.0,0
10,P1,2-back,1,10,B,non-target,non-target,1901.0,True,2,10,25,False,0.0,0.0,0.0,4.0,0
11,P1,2-back,1,11,V,target,target,948.0,True,2,10,25,False,1.0,1.0,0.0,4.0,0
12,P1,2-back,1,12,B,target,target,2389.0,True,2,10,25,False,2.0,2.0,0.0,4.0,0
13,P1,2-back,1,13,S,non-target,non-target,3292.0,True,2,10,25,False,1.0,2.0,0.0,4.0,0
14,P1,2-back,1,14,B,target,target,1148.0,True,2,10,25,False,1.0,3.0,0.0,4.0,0
15,P1,2-back,1,15,S,target,non-target,2364.0,False,2,10,25,False,2.0,3.0,0.0,3.0,0
16,P1,2-back,1,16,P,non-target,,,False,2,10,25,False,1.0,2.0,0.0,2.0,0
17,P1,2-back,1,17,J,non-target,non-target,1700.0,True,2,10,25,False,0.0,2.0,0.0,2.0,0
18,P1,2-back,1,18,N,non-target,non-target,2668.0,True,2,10,25,False,0.0,1.0,0.0,2.0,0
19,P1,2-back,1,19,J,target,target,1093.0,True,2,10,25,False,1.0,1.0,0.0,3.0,0
20,P1,2-back,1,20,G,non-target,non-target,1380.0,True,2,10,25,False,1.0,1.0,0.0,4.0,0
21,P1,2-back,1,21,M,non-target,non-target,1596.0,True,2,10,25,False,0.0,1.0,0.0,4.0,0
22,P1,2-back,1,22,T,non-target,non-target,2548.0,True,2,10,25,False,0.0,1.0,0.0,4.0,0
23,P1,2-back,1,23,K,non-target,non-target,1148.0,True,2,10,25,False,0.0,0.0,0.0,4.0,0
24,P1,2-back,1,24,T,target,target,2372.0,True,2,10,25,False,1.0,1.0,0.0,4.0,0
25,P1,2-back,1,25,Q,non-target,non-target,2868.0,True,2,10,25,False,1.0,1.0,0.0,4.0,0
26,P1,2-back,1,26,T,target,target,948.0,True,2,10,25,False,1.0,2.0,0.0,4.0,0
27,P1,2-back,1,27,Q,target,target,2332.0,True,2,10,25,False,2.0,3.0,0.0,4.0,0
28,P1,2-back,1,28,D,non-target,non-target,1836.0,True,2,10,25,False,1.0,2.0,0.0,4.0,0
29,P1,2-back,1,29,Y,non-target,non-target,1500.0,True,2,10,25,False,0.0,2.0,0.0,4.0,0
30,P1,2-back,1,30,R,non-target,non-target,1292.0,True,2,10,25,False,0.0,1.0,0.0,4.0,0
31,P1,2-back,2,1,V,burn-in,,,False,2,10,26,False,,,,,0
32,P1,2-back,2,2,W,burn-in,,,False,2,10,26,False,,,,,0
33,P1,2-back,2,3,L,burn-in,non-target,2795.0,False,2,10,26,False,,,,,0
34,P1,2-back,2,4,Z,non-target,non-target,2035.0,True,2,10,26,False,0.0,0.0,0.0,1.0,0
35,P1,2-back,2,5,F,non-target,non-target,875.0,True,2,10,26,False,0.0,0.0,0.0,2.0,0
36,P1,2-back,2,6,Z,target,target,963.0,True,2,10,26,False,1.0,1.0,0.0,3.0,0
37,P1,2-back,2,7,C,non-target,non-target,1691.0,True,2,10,26,False,1.0,1.0,0.0,4.0,0
38,P1,2-back,2,8,H,non-target,non-target,1230.0,True,2,10,26,False,0.0,1.0,0.0,4.0,0
39,P1,2-back,2,9,G,non-target,non-target,963.0,True,2,10,26,False,0.0,1.0,0.0,4.0,0
40,P1,2-back,2,10,H,non-target,target,755.0,False,2,10,26,False,1.0,0.0,0.0,3.0,0
41,P1,2-back,2,11,G,target,target,955.0,True,2,10,26,False,2.0,1.0,0.0,3.0,0
42,P1,2-back,2,12,H,target,target,715.0,True,2,10,26,False,2.0,2.0,0.0,3.0,0
43,P1,2-back,2,13,D,non-target,non-target,1317.0,True,2,10,26,False,1.0,2.0,0.0,3.0,0
44,P1,2-back,2,14,H,target,target,1971.0,True,2,10,26,False,1.0,3.0,0.0,4.0,0
45,P1,2-back,2,15,D,target,target,1027.0,True,2,10,26,False,2.0,3.0,0.0,4.0,0
46,P1,2-back,2,16,C,non-target,non-target,987.0,True,2,10,26,False,1.0,2.0,0.0,4.0,0
47,P1,2-back,2,17,Y,non-target,non-target,931.0,True,2,10,26,False,0.0,2.0,0.0,4.0,0
48,P1,2-back,2,18,S,non-target,non-target,827.0,True,2,10,26,False,0.0,1.0,0.0,4.0,0
49,P1,2-back,2,19,N,non-target,non-target,1507.0,True,2,10,26,False,0.0,0.0,0.0,4.0,0
50,P1,2-back,2,20,F,non-target,non-target,795.0,True,2,10,26,False,0.0,0.0,0.0,4.0,0
51,P1,2-back,2,21,Z,non-target,non-target,555.0,True,2,10,26,False,0.0,0.0,0.0,4.0,0
52,P1,2-back,2,22,M,non-target,non-target,459.0,True,2,10,26,False,0.0,0.0,0.0,4.0,0
53,P1,2-back,2,23,J,non-target,non-target,715.0,True,2,10,26,False,0.0,0.0,0.0,4.0,0
54,P1,2-back,2,24,L,non-target,non-target,1051.0,True,2,10,26,False,0.0,0.0,0.0,4.0,0
55,P1,2-back,2,25,J,target,target,2587.0,True,2,10,26,False,1.0,1.0,0.0,4.0,0
56,P1,2-back,2,26,L,target,target,1459.0,True,2,10,26,False,2.0,2.0,0.0,4.0,0
57,P1,2-back,2,27,J,target,target,555.0,True,2,10,26,False,2.0,3.0,0.0,4.0,0
58,P1,2-back,2,28,L,target,target,829.0,True,2,10,26,False,2.0,4.0,0.0,4.0,0
59,P1,2-back,2,29,J,target,target,667.0,True,2,10,26,False,2.0,4.0,0.0,4.0,0
60,P1,2-back,2,30,P,non-target,non-target,1180.0,True,2,10,26,False,1.0,3.0,0.0,4.0,0
61,P1,2-back,3,1,B,burn-in,,,False,2,10,27,False,,,,,0
62,P1,2-back,3,2,Q,burn-in,,,False,2,10,27,False,,,,,0
63,P1,2-back,3,3,R,burn-in,non-target,1191.0,False,2,10,27,False,,,,,0
64,P1,2-back,3,4,T,non-target,non-target,1946.0,True,2,10,27,False,0.0,0.0,0.0,1.0,0
65,P1,2-back,3,5,R,target,target,1183.0,True,2,10,27,False,1.0,1.0,0.0,2.0,0
66,P1,2-back,3,6,W,non-target,non-target,783.0,True,2,10,27,False,1.0,1.0,0.0,3.0,0
67,P1,2-back,3,7,V,non-target,non-target,1370.0,True,2,10,27,False,0.0,1.0,0.0,4.0,0
68,P1,2-back,3,8,K,non-target,non-target,559.0,True,2,10,27,False,0.0,1.0,0.0,4.0,0
69,P1,2-back,3,9,N,non-target,non-target,815.0,True,2,10,27,False,0.0,0.0,0.0,4.0,0
70,P1,2-back,3,10,C,non-target,non-target,871.0,True,2,10,27,False,0.0,0.0,0.0,4.0,0
71,P1,2-back,3,11,N,target,target,903.0,True,2,10,27,False,1.0,1.0,0.0,4.0,0
72,P1,2-back,3,12,T,non-target,non-target,1255.0,True,2,10,27,False,1.0,1.0,0.0,4.0,0
73,P1,2-back,3,13,P,non-target,non-target,959.0,True,2,10,27,False,0.0,1.0,0.0,4.0,0
74,P1,2-back,3,14,S,non-target,non-target,1423.0,True,2,10,27,False,0.0,1.0,0.0,4.0,0
75,P1,2-back,3,15,P,target,target,919.0,True,2,10,27,False,1.0,1.0,0.0,4.0,0
76,P1,2-back,3,16,K,non-target,non-target,1375.0,True,2,10,27,False,1.0,1.0,0.0,4.0,0
77,P1,2-back,3,17,D,non-target,non-target,1255.0,True,2,10,27,False,0.0,1.0,0.0,4.0,0
78,P1,2-back,3,18,K,target,target,679.0,True,2,10,27,False,1.0,2.0,0.0,4.0,0
79,P1,2-back,3,19,F,non-target,non-target,703.0,True,2,10,27,False,1.0,1.0,0.0,4.0,0
80,P1,2-back,3,20,H,non-target,non-target,862.0,True,2,10,27,False,0.0,1.0,0.0,4.0,0
81,P1,2-back,3,21,Z,non-target,non-target,766.0,True,2,10,27,False,0.0,1.0,0.0,4.0,0
82,P1,2-back,3,22,H,target,target,694.0,True,2,10,27,False,1.0,1.0,0.0,4.0,0
83,P1,2-back,3,23,Z,target,target,838.0,True,2,10,27,False,2.0,2.0,0.0,4.0,0
84,P1,2-back,3,24,H,target,target,926.0,True,2,10,27,False,2.0,3.0,0.0,4.0,0
85,P1,2-back,3,25,Z,target,target,1062.0,True,2,10,27,False,2.0,4.0,0.0,4.0,0
86,P1,2-back,3,26,R,non-target,non-target,766.0,True,2,10,27,False,1.0,3.0,0.0,4.0,0
87,P1,2-back,3,27,Z,target,target,878.0,True,2,10,27,False,1.0,3.0,0.0,4.0,0
88,P1,2-back,3,28,W,non-target,non-target,857.0,True,2,10,27,False,1.0,2.0,0.0,4.0,0
89,P1,2-back,3,29,Z,target,target,702.0,True,2,10,27,False,1.0,2.0,0.0,4.0,0
90,P1,2-back,3,30,G,non-target,non-target,1654.0,True,2,10,27,False,1.0,2.0,0.0,4.0,0
91,P1,3-back,1,1,N,burn-in,,,False,3,10,21,False,,,,,1
92,P1,3-back,1,2,W,burn-in,,,False,3,10,21,False,,,,,1
93,P1,3-back,1,3,Y,burn-in,,,False,3,10,21,False,,,,,1
94,P1,3-back,1,4,C,non-target,non-target,1229.0,True,3,10,21,False,0.0,0.0,0.0,1.0,1
95,P1,3-back,1,5,W,target,non-target,1693.0,False,3,10,21,False,1.0,1.0,0.0,1.0,1
96,P1,3-back,1,6,Y,target,non-target,1765.0,False,3,10,21,False,1.0,2.0,0.0,1.0,1
97,P1,3-back,1,7,F,non-target,non-target,2813.0,True,3,10,21,False,0.0,2.0,0.0,2.0,1
98,P1,3-back,1,8,J,non-target,non-target,3140.0,True,3,10,21,False,0.0,2.0,0.0,2.0,1
99,P1,3-back,1,9,D,non-target,non-target,2980.0,True,3,10,21,False,0.0,1.0,0.0,3.0,1
100,P1,3-back,1,10,F,target,target,2716.0,True,3,10,21,False,1.0,1.0,0.0,4.0,1
101,P1,3-back,1,11,J,target,target,2588.0,True,3,10,21,False,1.0,2.0,0.0,4.0,1
102,P1,3-back,1,12,R,non-target,non-target,2444.0,True,3,10,21,False,0.0,2.0,0.0,4.0,1
103,P1,3-back,1,13,V,non-target,non-target,2188.0,True,3,10,21,False,0.0,2.0,0.0,4.0,1
104,P1,3-back,1,14,J,target,non-target,2636.0,False,3,10,21,False,1.0,2.0,0.0,3.0,1
105,P1,3-back,1,15,R,target,target,1196.0,True,3,10,21,False,1.0,2.0,0.0,3.0,1
106,P1,3-back,1,16,L,non-target,non-target,2764.0,True,3,10,21,False,0.0,2.0,0.0,3.0,1
107,P1,3-back,1,17,J,target,target,1604.0,True,3,10,21,False,1.0,3.0,0.0,3.0,1
108,P1,3-back,1,18,S,non-target,non-target,3372.0,True,3,10,21,False,0.0,2.0,0.0,4.0,1
109,P1,3-back,1,19,L,target,non-target,1908.0,False,3,10,21,False,1.0,2.0,0.0,3.0,1
110,P1,3-back,1,20,P,non-target,non-target,2300.0,True,3,10,21,False,0.0,2.0,0.0,3.0,1
111,P1,3-back,1,21,T,non-target,non-target,1580.0,True,3,10,21,False,0.0,1.0,0.0,3.0,1
112,P1,3-back,1,22,Q,non-target,non-target,1524.0,True,3,10,21,False,0.0,1.0,0.0,3.0,1
113,P1,3-back,1,23,T,non-target,target,1668.0,False,3,10,21,True,1.0,0.0,1.0,3.0,1
114,P1,3-back,1,24,T,target,target,1092.0,True,3,10,21,False,2.0,1.0,1.0,3.0,1
115,P1,3-back,1,25,M,non-target,non-target,764.0,True,3,10,21,False,1.0,1.0,1.0,3.0,1
116,P1,3-back,1,26,T,target,target,1388.0,True,3,10,21,False,2.0,2.0,1.0,3.0,1
117,P1,3-back,1,27,V,non-target,non-target,2356.0,True,3,10,21,False,1.0,2.0,0.0,4.0,1
118,P1,3-back,1,28,N,non-target,non-target,1012.0,True,3,10,21,False,0.0,1.0,0.0,4.0,1
119,P1,3-back,1,29,Y,non-target,non-target,1572.0,True,3,10,21,False,0.0,1.0,0.0,4.0,1
120,P1,3-back,1,30,H,non-target,target,1700.0,False,3,10,21,False,0.0,0.0,0.0,3.0,1
121,P1,3-back,2,1,R,burn-in,,,False,3,10,24,False,,,,,1
122,P1,3-back,2,2,P,burn-in,,,False,3,10,24,False,,,,,1
123,P1,3-back,2,3,Q,burn-in,,,False,3,10,24,False,,,,,1
124,P1,3-back,2,4,R,target,target,1089.0,True,3,10,24,False,1.0,1.0,0.0,1.0,1
125,P1,3-back,2,5,P,target,target,1081.0,True,3,10,24,False,1.0,2.0,0.0,2.0,1
126,P1,3-back,2,6,B,non-target,non-target,849.0,True,3,10,24,False,0.0,2.0,0.0,3.0,1
127,P1,3-back,2,7,C,non-target,non-target,2185.0,True,3,10,24,False,0.0,2.0,0.0,4.0,1
128,P1,3-back,2,8,P,target,target,961.0,True,3,10,24,False,1.0,2.0,0.0,4.0,1
129,P1,3-back,2,9,F,non-target,non-target,2137.0,True,3,10,24,False,0.0,1.0,0.0,4.0,1
130,P1,3-back,2,10,G,non-target,non-target,1801.0,True,3,10,24,False,0.0,1.0,0.0,4.0,1
131,P1,3-back,2,11,P,target,target,673.0,True,3,10,24,False,1.0,2.0,0.0,4.0,1
132,P1,3-back,2,12,F,target,target,961.0,True,3,10,24,False,1.0,2.0,0.0,4.0,1
133,P1,3-back,2,13,G,target,target,1985.0,True,3,10,24,False,1.0,3.0,0.0,4.0,1
134,P1,3-back,2,14,P,target,target,1433.0,True,3,10,24,False,1.0,4.0,0.0,4.0,1
135,P1,3-back,2,15,D,non-target,non-target,1513.0,True,3,10,24,False,0.0,3.0,0.0,4.0,1
136,P1,3-back,2,16,K,non-target,non-target,1537.0,True,3,10,24,False,0.0,2.0,0.0,4.0,1
137,P1,3-back,2,17,L,non-target,non-target,1529.0,True,3,10,24,False,0.0,1.0,0.0,4.0,1
138,P1,3-back,2,18,S,non-target,non-target,2065.0,True,3,10,24,False,0.0,0.0,0.0,4.0,1
139,P1,3-back,2,19,K,target,target,625.0,True,3,10,24,False,1.0,1.0,0.0,4.0,1
140,P1,3-back,2,20,W,non-target,non-target,2785.0,True,3,10,24,False,0.0,1.0,0.0,4.0,1
141,P1,3-back,2,21,J,non-target,non-target,1361.0,True,3,10,24,False,0.0,1.0,0.0,4.0,1
142,P1,3-back,2,22,K,target,non-target,2233.0,False,3,10,24,False,1.0,2.0,0.0,3.0,1
143,P1,3-back,2,23,Z,non-target,non-target,2153.0,True,3,10,24,False,0.0,1.0,0.0,3.0,1
144,P1,3-back,2,24,C,non-target,non-target,2488.0,True,3,10,24,False,0.0,1.0,0.0,3.0,1
145,P1,3-back,2,25,K,target,non-target,2272.0,False,3,10,24,False,1.0,2.0,0.0,2.0,1
146,P1,3-back,2,26,Y,non-target,non-target,2088.0,True,3,10,24,False,0.0,1.0,0.0,3.0,1
147,P1,3-back,2,27,K,non-target,target,968.0,False,3,10,24,True,1.0,1.0,1.0,2.0,1
148,P1,3-back,2,28,D,non-target,non-target,2440.0,True,3,10,24,False,1.0,1.0,1.0,2.0,1
149,P1,3-back,2,29,V,non-target,non-target,1728.0,True,3,10,24,False,0.0,0.0,1.0,3.0,1
150,P1,3-back,2,30,M,non-target,non-target,1824.0,True,3,10,24,False,0.0,0.0,1.0,3.0,1
151,P1,3-back,3,1,P,burn-in,,,False,3,10,23,False,,,,,0
152,P1,3-back,3,2,L,burn-in,,,False,3,10,23,False,,,,,0
153,P1,3-back,3,3,J,burn-in,,,False,3,10,23,False,,,,,0
154,P1,3-back,3,4,P,target,target,469.0,True,3,10,23,False,1.0,1.0,0.0,1.0,0
155,P1,3-back,3,5,L,target,target,1301.0,True,3,10,23,False,1.0,2.0,0.0,2.0,0
156,P1,3-back,3,6,T,non-target,non-target,1525.0,True,3,10,23,False,0.0,2.0,0.0,3.0,0
157,P1,3-back,3,7,R,non-target,non-target,2189.0,True,3,10,23,False,0.0,2.0,0.0,4.0,0
158,P1,3-back,3,8,L,target,non-target,1381.0,False,3,10,23,False,1.0,2.0,0.0,3.0,0
159,P1,3-back,3,9,B,non-target,non-target,1845.0,True,3,10,23,False,0.0,1.0,0.0,3.0,0
160,P1,3-back,3,10,R,target,non-target,1581.0,False,3,10,23,False,1.0,2.0,0.0,2.0,0
161,P1,3-back,3,11,G,non-target,non-target,2349.0,True,3,10,23,False,0.0,2.0,0.0,2.0,0
162,P1,3-back,3,12,S,non-target,non-target,2277.0,True,3,10,23,False,0.0,1.0,0.0,3.0,0
163,P1,3-back,3,13,Q,non-target,non-target,2021.0,True,3,10,23,False,0.0,1.0,0.0,3.0,0
164,P1,3-back,3,14,W,non-target,non-target,2117.0,True,3,10,23,False,0.0,0.0,0.0,4.0,0
165,P1,3-back,3,15,H,non-target,non-target,3134.0,True,3,10,23,False,0.0,0.0,0.0,4.0,0
166,P1,3-back,3,16,F,non-target,non-target,1941.0,True,3,10,23,False,0.0,0.0,0.0,4.0,0
167,P1,3-back,3,17,W,target,target,1094.0,True,3,10,23,False,1.0,1.0,0.0,4.0,0
168,P1,3-back,3,18,Z,non-target,non-target,1549.0,True,3,10,23,False,0.0,1.0,0.0,4.0,0
169,P1,3-back,3,19,N,non-target,non-target,2093.0,True,3,10,23,False,0.0,1.0,0.0,4.0,0
170,P1,3-back,3,20,M,non-target,non-target,1108.0,True,3,10,23,False,0.0,1.0,0.0,4.0,0
171,P1,3-back,3,21,G,non-target,non-target,1500.0,True,3,10,23,False,0.0,0.0,0.0,4.0,0
172,P1,3-back,3,22,R,non-target,non-target,1838.0,True,3,10,23,False,0.0,0.0,0.0,4.0,0
173,P1,3-back,3,23,M,target,target,615.0,True,3,10,23,False,1.0,1.0,0.0,4.0,0
174,P1,3-back,3,24,V,non-target,non-target,1157.0,True,3,10,23,False,0.0,1.0,0.0,4.0,0
175,P1,3-back,3,25,N,non-target,non-target,2247.0,True,3,10,23,False,0.0,1.0,0.0,4.0,0
176,P1,3-back,3,26,M,target,target,3140.0,True,3,10,23,False,1.0,2.0,0.0,4.0,0
177,P1,3-back,3,27,V,target,non-target,2340.0,False,3,10,23,False,1.0,2.0,0.0,3.0,0
178,P1,3-back,3,28,N,target,non-target,2020.0,False,3,10,23,False,1.0,3.0,0.0,2.0,0
179,P1,3-back,3,29,H,non-target,non-target,1181.0,True,3,10,23,False,0.0,3.0,0.0,2.0,0
180,P1,3-back,3,30,V,target,target,1868.0,True,3,10,23,False,1.0,3.0,0.0,2.0,0
181,P10,2-back,1,1,Q,burn-in,non-target,554.0,False,2,10,27,False,,,,,0
182,P10,2-back,1,2,H,burn-in,non-target,306.0,False,2,10,27,False,,,,,0
183,P10,2-back,1,3,S,burn-in,non-target,425.0,False,2,10,27,False,,,,,0
184,P10,2-back,1,4,T,non-target,non-target,409.0,True,2,10,27,False,0.0,0.0,0.0,1.0,0
185,P10,2-back,1,5,B,non-target,non-target,425.0,True,2,10,27,False,0.0,0.0,0.0,2.0,0
186,P10,2-back,1,6,T,target,target,377.0,True,2,10,27,False,1.0,1.0,0.0,3.0,0
187,P10,2-back,1,7,J,non-target,non-target,385.0,True,2,10,27,False,1.0,1.0,0.0,4.0,0
188,P10,2-back,1,8,L,non-target,non-target,633.0,True,2,10,27,False,0.0,1.0,0.0,4.0,0
189,P10,2-back,1,9,Y,non-target,non-target,561.0,True,2,10,27,False,0.0,1.0,0.0,4.0,0
190,P10,2-back,1,10,L,target,target,409.0,True,2,10,27,False,1.0,1.0,0.0,4.0,0
191,P10,2-back,1,11,B,non-target,non-target,385.0,True,2,10,27,False,1.0,1.0,0.0,4.0,0
192,P10,2-back,1,12,L,target,target,336.0,True,2,10,27,False,1.0,2.0,0.0,4.0,0
193,P10,2-back,1,13,B,target,target,313.0,True,2,10,27,False,2.0,3.0,0.0,4.0,0
194,P10,2-back,1,14,L,target,target,297.0,True,2,10,27,False,2.0,3.0,0.0,4.0,0
195,P10,2-back,1,15,B,target,target,337.0,True,2,10,27,False,2.0,4.0,0.0,4.0,0
196,P10,2-back,1,16,N,non-target,non-target,433.0,True,2,10,27,False,1.0,3.0,0.0,4.0,0
197,P10,2-back,1,17,B,target,target,329.0,True,2,10,27,False,1.0,3.0,0.0,4.0,0
198,P10,2-back,1,18,N,target,target,345.0,True,2,10,27,False,2.0,3.0,0.0,4.0,0
199,P10,2-back,1,19,C,non-target,non-target,412.0,True,2,10,27,False,1.0,2.0,0.0,4.0,0
200,P10,2-back,1,20,Q,non-target,non-target,361.0,True,2,10,27,False,0.0,2.0,0.0,4.0,0
201,P10,2-back,1,21,V,non-target,non-target,497.0,True,2,10,27,False,0.0,1.0,0.0,4.0,0
202,P10,2-back,1,22,F,non-target,non-target,376.0,True,2,10,27,False,0.0,0.0,0.0,4.0,0
203,P10,2-back,1,23,K,non-target,non-target,368.0,True,2,10,27,False,0.0,0.0,0.0,4.0,0
204,P10,2-back,1,24,F,target,target,504.0,True,2,10,27,False,1.0,1.0,0.0,4.0,0
205,P10,2-back,1,25,W,non-target,non-target,376.0,True,2,10,27,False,1.0,1.0,0.0,4.0,0
206,P10,2-back,1,26,G,non-target,non-target,464.0,True,2,10,27,False,0.0,1.0,0.0,4.0,0
207,P10,2-back,1,27,Z,non-target,non-target,512.0,True,2,10,27,False,0.0,1.0,0.0,4.0,0
208,P10,2-back,1,28,D,non-target,non-target,432.0,True,2,10,27,False,0.0,0.0,0.0,4.0,0
209,P10,2-back,1,29,H,non-target,non-target,392.0,True,2,10,27,False,0.0,0.0,0.0,4.0,0
210,P10,2-back,1,30,D,target,target,321.0,True,2,10,27,False,1.0,1.0,0.0,4.0,0
211,P10,2-back,2,1,T,burn-in,,,False,2,10,27,False,,,,,0
212,P10,2-back,2,2,M,burn-in,non-target,389.0,False,2,10,27,False,,,,,0
213,P10,2-back,2,3,P,burn-in,non-target,357.0,False,2,10,27,False,,,,,0
214,P10,2-back,2,4,M,target,target,358.0,True,2,10,27,False,1.0,1.0,0.0,1.0,0
215,P10,2-back,2,5,R,non-target,non-target,733.0,True,2,10,27,False,1.0,1.0,0.0,2.0,0
216,P10,2-back,2,6,M,target,target,309.0,True,2,10,27,False,1.0,2.0,0.0,3.0,0
217,P10,2-back,2,7,J,non-target,non-target,375.0,True,2,10,27,False,1.0,2.0,0.0,4.0,0
218,P10,2-back,2,8,M,target,target,301.0,True,2,10,27,False,1.0,2.0,0.0,4.0,0
219,P10,2-back,2,9,L,non-target,non-target,405.0,True,2,10,27,False,1.0,2.0,0.0,4.0,0
220,P10,2-back,2,10,S,non-target,non-target,357.0,True,2,10,27,False,0.0,1.0,0.0,4.0,0
221,P10,2-back,2,11,L,target,target,325.0,True,2,10,27,False,1.0,2.0,0.0,4.0,0
222,P10,2-back,2,12,S,target,target,349.0,True,2,10,27,False,2.0,2.0,0.0,4.0,0
223,P10,2-back,2,13,P,non-target,non-target,397.0,True,2,10,27,False,1.0,2.0,0.0,4.0,0
224,P10,2-back,2,14,H,non-target,non-target,396.0,True,2,10,27,False,0.0,2.0,0.0,4.0,0
225,P10,2-back,2,15,P,target,target,428.0,True,2,10,27,False,1.0,2.0,0.0,4.0,0
226,P10,2-back,2,16,C,non-target,non-target,388.0,True,2,10,27,False,1.0,1.0,0.0,4.0,0
227,P10,2-back,2,17,P,target,target,412.0,True,2,10,27,False,1.0,2.0,0.0,4.0,0
228,P10,2-back,2,18,D,non-target,non-target,324.0,True,2,10,27,False,1.0,2.0,0.0,4.0,0
229,P10,2-back,2,19,Y,non-target,non-target,437.0,True,2,10,27,False,0.0,1.0,0.0,4.0,0
230,P10,2-back,2,20,Z,non-target,non-target,357.0,True,2,10,27,False,0.0,1.0,0.0,4.0,0
231,P10,2-back,2,21,M,non-target,non-target,389.0,True,2,10,27,False,0.0,0.0,0.0,4.0,0
232,P10,2-back,2,22,Z,target,target,413.0,True,2,10,27,False,1.0,1.0,0.0,4.0,0
233,P10,2-back,2,23,T,non-target,non-target,349.0,True,2,10,27,False,1.0,1.0,0.0,4.0,0
234,P10,2-back,2,24,F,non-target,non-target,356.0,True,2,10,27,False,0.0,1.0,0.0,4.0,0
235,P10,2-back,2,25,N,non-target,non-target,364.0,True,2,10,27,False,0.0,1.0,0.0,4.0,0
236,P10,2-back,2,26,B,non-target,non-target,348.0,True,2,10,27,False,0.0,0.0,0.0,4.0,0
237,P10,2-back,2,27,N,target,target,564.0,True,2,10,27,False,1.0,1.0,0.0,4.0,0
238,P10,2-back,2,28,G,non-target,non-target,502.0,True,2,10,27,False,1.0,1.0,0.0,4.0,0
239,P10,2-back,2,29,N,target,target,324.0,True,2,10,27,False,1.0,2.0,0.0,4.0,0
240,P10,2-back,2,30,V,non-target,non-target,396.0,True,2,10,27,False,1.0,2.0,0.0,4.0,0
241,P10,2-back,3,1,Q,burn-in,target,1014.0,False,2,10,27,False,,,,,0
242,P10,2-back,3,2,K,burn-in,non-target,630.0,False,2,10,27,False,,,,,0
243,P10,2-back,3,3,L,burn-in,non-target,462.0,False,2,10,27,False,,,,,0
244,P10,2-back,3,4,J,non-target,non-target,334.0,True,2,10,27,False,0.0,0.0,0.0,1.0,0
245,P10,2-back,3,5,L,target,target,398.0,True,2,10,27,False,1.0,1.0,0.0,2.0,0
246,P10,2-back,3,6,R,non-target,non-target,350.0,True,2,10,27,False,1.0,1.0,0.0,3.0,0
247,P10,2-back,3,7,L,target,target,758.0,True,2,10,27,False,1.0,2.0,0.0,4.0,0
248,P10,2-back,3,8,W,non-target,non-target,398.0,True,2,10,27,False,1.0,2.0,0.0,4.0,0
249,P10,2-back,3,9,S,non-target,non-target,414.0,True,2,10,27,False,0.0,1.0,0.0,4.0,0
250,P10,2-back,3,10,W,target,target,327.0,True,2,10,27,False,1.0,2.0,0.0,4.0,0
251,P10,2-back,3,11,S,target,target,327.0,True,2,10,27,False,2.0,2.0,0.0,4.0,0
252,P10,2-back,3,12,W,target,target,334.0,True,2,10,27,False,2.0,3.0,0.0,4.0,0
253,P10,2-back,3,13,S,target,target,326.0,True,2,10,27,False,2.0,4.0,0.0,4.0,0
254,P10,2-back,3,14,G,non-target,non-target,374.0,True,2,10,27,False,1.0,3.0,0.0,4.0,0
255,P10,2-back,3,15,F,non-target,non-target,390.0,True,2,10,27,False,0.0,2.0,0.0,4.0,0
256,P10,2-back,3,16,C,non-target,non-target,430.0,True,2,10,27,False,0.0,1.0,0.0,4.0,0
257,P10,2-back,3,17,J,non-target,non-target,438.0,True,2,10,27,False,0.0,0.0,0.0,4.0,0
258,P10,2-back,3,18,C,target,target,366.0,True,2,10,27,False,1.0,1.0,0.0,4.0,0
259,P10,2-back,3,19,D,non-target,non-target,382.0,True,2,10,27,False,1.0,1.0,0.0,4.0,0
260,P10,2-back,3,20,W,non-target,non-target,334.0,True,2,10,27,False,0.0,1.0,0.0,4.0,0
261,P10,2-back,3,21,D,target,target,502.0,True,2,10,27,False,1.0,2.0,0.0,4.0,0
262,P10,2-back,3,22,H,non-target,non-target,373.0,True,2,10,27,False,1.0,1.0,0.0,4.0,0
263,P10,2-back,3,23,D,target,target,325.0,True,2,10,27,False,1.0,2.0,0.0,4.0,0
264,P10,2-back,3,24,Z,non-target,non-target,389.0,True,2,10,27,False,1.0,2.0,0.0,4.0,0
265,P10,2-back,3,25,Q,non-target,non-target,390.0,True,2,10,27,False,0.0,1.0,0.0,4.0,0
266,P10,2-back,3,26,K,non-target,non-target,414.0,True,2,10,27,False,0.0,1.0,0.0,4.0,0
267,P10,2-back,3,27,Y,non-target,non-target,382.0,True,2,10,27,False,0.0,0.0,0.0,4.0,0
268,P10,2-back,3,28,T,non-target,non-target,374.0,True,2,10,27,False,0.0,0.0,0.0,4.0,0
269,P10,2-back,3,29,V,non-target,non-target,502.0,True,2,10,27,False,0.0,0.0,0.0,4.0,0
270,P10,2-back,3,30,T,target,target,334.0,True,2,10,27,False,1.0,1.0,0.0,4.0,0
271,P10,3-back,1,1,Z,burn-in,non-target,1268.0,False,3,10,26,False,,,,,0
272,P10,3-back,1,2,K,burn-in,non-target,412.0,False,3,10,26,False,,,,,0
273,P10,3-back,1,3,Y,burn-in,non-target,436.0,False,3,10,26,False,,,,,0
274,P10,3-back,1,4,Z,target,target,412.0,True,3,10,26,False,1.0,1.0,0.0,1.0,0
275,P10,3-back,1,5,K,target,target,332.0,True,3,10,26,False,1.0,2.0,0.0,2.0,0
276,P10,3-back,1,6,W,non-target,non-target,548.0,True,3,10,26,False,0.0,2.0,0.0,3.0,0
277,P10,3-back,1,7,G,non-target,non-target,667.0,True,3,10,26,False,0.0,2.0,0.0,4.0,0
278,P10,3-back,1,8,K,target,target,363.0,True,3,10,26,False,1.0,2.0,0.0,4.0,0
279,P10,3-back,1,9,Q,non-target,non-target,403.0,True,3,10,26,False,0.0,1.0,0.0,4.0,0
280,P10,3-back,1,10,F,non-target,non-target,430.0,True,3,10,26,False,0.0,1.0,0.0,4.0,0
281,P10,3-back,1,11,K,target,target,372.0,True,3,10,26,False,1.0,2.0,0.0,4.0,0
282,P10,3-back,1,12,N,non-target,non-target,516.0,True,3,10,26,False,0.0,1.0,0.0,4.0,0
283,P10,3-back,1,13,B,non-target,non-target,420.0,True,3,10,26,False,0.0,1.0,0.0,4.0,0
284,P10,3-back,1,14,T,non-target,non-target,388.0,True,3,10,26,False,0.0,1.0,0.0,4.0,0
285,P10,3-back,1,15,N,target,target,788.0,True,3,10,26,False,1.0,1.0,0.0,4.0,0
286,P10,3-back,1,16,B,target,target,300.0,True,3,10,26,False,1.0,2.0,0.0,4.0,0
287,P10,3-back,1,17,D,non-target,non-target,339.0,True,3,10,26,False,0.0,2.0,0.0,4.0,0
288,P10,3-back,1,18,J,non-target,non-target,563.0,True,3,10,26,False,0.0,2.0,0.0,4.0,0
289,P10,3-back,1,19,H,non-target,non-target,443.0,True,3,10,26,False,0.0,1.0,0.0,4.0,0
290,P10,3-back,1,20,C,non-target,non-target,379.0,True,3,10,26,False,0.0,0.0,0.0,4.0,0
291,P10,3-back,1,21,W,non-target,non-target,411.0,True,3,10,26,False,0.0,0.0,0.0,4.0,0
292,P10,3-back,1,22,Q,non-target,non-target,411.0,True,3,10,26,False,0.0,0.0,0.0,4.0,0
293,P10,3-back,1,23,C,non-target,target,355.0,False,3,10,26,False,1.0,0.0,0.0,3.0,0
294,P10,3-back,1,24,W,target,target,387.0,True,3,10,26,False,1.0,1.0,0.0,3.0,0
295,P10,3-back,1,25,Q,target,target,459.0,True,3,10,26,False,1.0,2.0,0.0,3.0,0
296,P10,3-back,1,26,C,target,target,372.0,True,3,10,26,False,1.0,3.0,0.0,3.0,0
297,P10,3-back,1,27,F,non-target,non-target,371.0,True,3,10,26,False,0.0,3.0,0.0,4.0,0
298,P10,3-back,1,28,T,non-target,non-target,371.0,True,3,10,26,False,0.0,2.0,0.0,4.0,0
299,P10,3-back,1,29,V,non-target,non-target,550.0,True,3,10,26,False,0.0,1.0,0.0,4.0,0
300,P10,3-back,1,30,F,target,target,443.0,True,3,10,26,False,1.0,1.0,0.0,4.0,0
301,P10,3-back,2,1,S,burn-in,non-target,704.0,False,3,10,25,False,,,,,0
302,P10,3-back,2,2,M,burn-in,non-target,443.0,False,3,10,25,False,,,,,0
303,P10,3-back,2,3,N,burn-in,non-target,384.0,False,3,10,25,False,,,,,0
304,P10,3-back,2,4,L,non-target,non-target,384.0,True,3,10,25,False,0.0,0.0,0.0,1.0,0
305,P10,3-back,2,5,B,non-target,non-target,384.0,True,3,10,25,False,0.0,0.0,0.0,2.0,0
306,P10,3-back,2,6,D,non-target,non-target,384.0,True,3,10,25,False,0.0,0.0,0.0,3.0,0
307,P10,3-back,2,7,R,non-target,non-target,368.0,True,3,10,25,False,0.0,0.0,0.0,4.0,0
308,P10,3-back,2,8,B,target,target,368.0,True,3,10,25,False,1.0,1.0,0.0,4.0,0
309,P10,3-back,2,9,K,non-target,non-target,480.0,True,3,10,25,False,0.0,1.0,0.0,4.0,0
310,P10,3-back,2,10,Y,non-target,non-target,384.0,True,3,10,25,False,0.0,1.0,0.0,4.0,0
311,P10,3-back,2,11,H,non-target,non-target,368.0,True,3,10,25,False,0.0,1.0,0.0,4.0,0
312,P10,3-back,2,12,K,target,target,696.0,True,3,10,25,False,1.0,1.0,0.0,4.0,0
313,P10,3-back,2,13,Y,target,target,592.0,True,3,10,25,False,1.0,2.0,0.0,4.0,0
314,P10,3-back,2,14,J,non-target,non-target,1087.0,True,3,10,25,False,0.0,2.0,0.0,4.0,0
315,P10,3-back,2,15,K,target,target,623.0,True,3,10,25,False,1.0,3.0,0.0,4.0,0
316,P10,3-back,2,16,Z,non-target,non-target,447.0,True,3,10,25,False,0.0,2.0,0.0,4.0,0
317,P10,3-back,2,17,J,target,non-target,463.0,False,3,10,25,False,1.0,2.0,0.0,3.0,0
318,P10,3-back,2,18,K,target,target,383.0,True,3,10,25,False,1.0,3.0,0.0,3.0,0
319,P10,3-back,2,19,P,non-target,non-target,1079.0,True,3,10,25,False,0.0,2.0,0.0,3.0,0
320,P10,3-back,2,20,J,target,target,935.0,True,3,10,25,False,1.0,3.0,0.0,3.0,0
321,P10,3-back,2,21,K,target,non-target,576.0,False,3,10,25,False,1.0,3.0,0.0,3.0,0
322,P10,3-back,2,22,G,non-target,non-target,504.0,True,3,10,25,False,0.0,2.0,0.0,3.0,0
323,P10,3-back,2,23,H,non-target,non-target,464.0,True,3,10,25,False,0.0,2.0,0.0,3.0,0
324,P10,3-back,2,24,M,non-target,non-target,407.0,True,3,10,25,False,0.0,1.0,0.0,3.0,0
325,P10,3-back,2,25,P,non-target,non-target,503.0,True,3,10,25,False,0.0,0.0,0.0,4.0,0
326,P10,3-back,2,26,N,non-target,non-target,463.0,True,3,10,25,False,0.0,0.0,0.0,4.0,0
327,P10,3-back,2,27,M,target,target,455.0,True,3,10,25,False,1.0,1.0,0.0,4.0,0
328,P10,3-back,2,28,P,target,target,799.0,True,3,10,25,False,1.0,2.0,0.0,4.0,0
329,P10,3-back,2,29,Z,non-target,non-target,847.0,True,3,10,25,False,0.0,2.0,0.0,4.0,0
330,P10,3-back,2,30,F,non-target,non-target,959.0,True,3,10,25,False,0.0,2.0,0.0,4.0,0
331,P10,3-back,3,1,Q,burn-in,non-target,789.0,False,3,10,26,False,,,,,1
332,P10,3-back,3,2,C,burn-in,non-target,308.0,False,3,10,26,False,,,,,1
333,P10,3-back,3,3,D,burn-in,non-target,364.0,False,3,10,26,False,,,,,1
334,P10,3-back,3,4,T,non-target,non-target,684.0,True,3,10,26,False,0.0,0.0,0.0,1.0,1
335,P10,3-back,3,5,J,non-target,non-target,532.0,True,3,10,26,False,0.0,0.0,0.0,2.0,1
336,P10,3-back,3,6,D,target,target,396.0,True,3,10,26,False,1.0,1.0,0.0,3.0,1
337,P10,3-back,3,7,G,non-target,non-target,516.0,True,3,10,26,False,0.0,1.0,0.0,4.0,1
338,P10,3-back,3,8,J,target,target,988.0,True,3,10,26,False,1.0,2.0,0.0,4.0,1
339,P10,3-back,3,9,R,non-target,non-target,684.0,True,3,10,26,False,0.0,2.0,0.0,4.0,1
340,P10,3-back,3,10,W,non-target,non-target,572.0,True,3,10,26,False,0.0,1.0,0.0,4.0,1
341,P10,3-back,3,11,J,target,target,708.0,True,3,10,26,False,1.0,2.0,0.0,4.0,1
342,P10,3-back,3,12,Y,non-target,non-target,427.0,True,3,10,26,False,0.0,1.0,0.0,4.0,1
343,P10,3-back,3,13,W,target,target,315.0,True,3,10,26,False,1.0,2.0,0.0,4.0,1
344,P10,3-back,3,14,S,non-target,non-target,395.0,True,3,10,26,False,0.0,2.0,0.0,4.0,1
345,P10,3-back,3,15,Y,target,target,331.0,True,3,10,26,False,1.0,2.0,0.0,4.0,1
346,P10,3-back,3,16,B,non-target,non-target,396.0,True,3,10,26,False,0.0,2.0,0.0,4.0,1
347,P10,3-back,3,17,S,target,non-target,532.0,False,3,10,26,False,1.0,2.0,0.0,3.0,1
348,P10,3-back,3,18,V,non-target,non-target,772.0,True,3,10,26,False,0.0,2.0,0.0,3.0,1
349,P10,3-back,3,19,B,target,target,460.0,True,3,10,26,False,1.0,2.0,0.0,3.0,1
350,P10,3-back,3,20,L,non-target,non-target,548.0,True,3,10,26,False,0.0,2.0,0.0,3.0,1
351,P10,3-back,3,21,K,non-target,non-target,732.0,True,3,10,26,False,0.0,1.0,0.0,4.0,1
352,P10,3-back,3,22,C,non-target,non-target,427.0,True,3,10,26,False,0.0,1.0,0.0,4.0,1
353,P10,3-back,3,23,B,non-target,non-target,611.0,True,3,10,26,True,0.0,0.0,1.0,4.0,1
354,P10,3-back,3,24,N,non-target,non-target,531.0,True,3,10,26,False,0.0,0.0,1.0,4.0,1
355,P10,3-back,3,25,V,non-target,non-target,859.0,True,3,10,26,False,0.0,0.0,1.0,4.0,1
356,P10,3-back,3,26,B,target,target,467.0,True,3,10,26,False,1.0,1.0,1.0,4.0,1
357,P10,3-back,3,27,N,target,target,355.0,True,3,10,26,False,1.0,2.0,0.0,4.0,1
358,P10,3-back,3,28,V,target,target,411.0,True,3,10,26,False,1.0,3.0,0.0,4.0,1
359,P10,3-back,3,29,T,non-target,non-target,539.0,True,3,10,26,False,0.0,3.0,0.0,4.0,1
360,P10,3-back,3,30,H,non-target,non-target,379.0,True,3,10,26,False,0.0,2.0,0.0,4.0,1
361,P11,2-back,1,1,Q,burn-in,non-target,1942.0,False,2,10,21,False,,,,,0
362,P11,2-back,1,2,K,burn-in,non-target,1094.0,False,2,10,21,False,,,,,0
363,P11,2-back,1,3,B,burn-in,non-target,758.0,False,2,10,21,False,,,,,0
364,P11,2-back,1,4,R,non-target,non-target,558.0,True,2,10,21,False,0.0,0.0,0.0,1.0,0
365,P11,2-back,1,5,F,non-target,non-target,574.0,True,2,10,21,False,0.0,0.0,0.0,2.0,0
366,P11,2-back,1,6,R,target,target,1822.0,True,2,10,21,False,1.0,1.0,0.0,3.0,0
367,P11,2-back,1,7,J,non-target,non-target,590.0,True,2,10,21,False,1.0,1.0,0.0,4.0,0
368,P11,2-back,1,8,R,target,non-target,1207.0,False,2,10,21,False,1.0,2.0,0.0,3.0,0
369,P11,2-back,1,9,J,target,non-target,975.0,False,2,10,21,False,2.0,3.0,0.0,2.0,0
370,P11,2-back,1,10,G,non-target,non-target,695.0,True,2,10,21,False,1.0,2.0,0.0,2.0,0
371,P11,2-back,1,11,J,non-target,non-target,719.0,True,2,10,21,False,1.0,2.0,0.0,2.0,0
372,P11,2-back,1,12,G,target,non-target,1135.0,False,2,10,21,False,2.0,2.0,0.0,2.0,0
373,P11,2-back,1,13,J,target,non-target,830.0,False,2,10,21,False,2.0,2.0,0.0,2.0,0
374,P11,2-back,1,14,G,target,non-target,654.0,False,2,10,21,False,2.0,3.0,0.0,1.0,0
375,P11,2-back,1,15,N,non-target,non-target,774.0,True,2,10,21,False,1.0,3.0,0.0,1.0,0
376,P11,2-back,1,16,P,non-target,non-target,566.0,True,2,10,21,False,0.0,2.0,0.0,2.0,0
377,P11,2-back,1,17,S,non-target,non-target,566.0,True,2,10,21,False,0.0,1.0,0.0,3.0,0
378,P11,2-back,1,18,P,target,target,926.0,True,2,10,21,False,1.0,1.0,0.0,4.0,0
379,P11,2-back,1,19,B,non-target,non-target,694.0,True,2,10,21,False,1.0,1.0,0.0,4.0,0
380,P11,2-back,1,20,G,non-target,target,942.0,False,2,10,21,False,0.0,1.0,0.0,3.0,0
381,P11,2-back,1,21,M,non-target,non-target,814.0,True,2,10,21,False,0.0,1.0,0.0,3.0,0
382,P11,2-back,1,22,C,non-target,non-target,486.0,True,2,10,21,False,0.0,0.0,0.0,3.0,0
383,P11,2-back,1,23,D,non-target,non-target,654.0,True,2,10,21,False,0.0,0.0,0.0,3.0,0
384,P11,2-back,1,24,L,non-target,non-target,485.0,True,2,10,21,False,0.0,0.0,0.0,4.0,0
385,P11,2-back,1,25,D,target,target,677.0,True,2,10,21,False,1.0,1.0,0.0,4.0,0
386,P11,2-back,1,26,L,target,target,1798.0,True,2,10,21,False,2.0,2.0,0.0,4.0,0
387,P11,2-back,1,27,Y,non-target,non-target,670.0,True,2,10,21,False,1.0,2.0,0.0,4.0,0
388,P11,2-back,1,28,L,target,target,446.0,True,2,10,21,False,1.0,3.0,0.0,4.0,0
389,P11,2-back,1,29,R,non-target,non-target,758.0,True,2,10,21,False,1.0,2.0,0.0,4.0,0
390,P11,2-back,1,30,Q,non-target,non-target,966.0,True,2,10,21,False,0.0,1.0,0.0,4.0,0
391,P11,2-back,2,1,F,burn-in,,,False,2,10,25,False,,,,,0
392,P11,2-back,2,2,W,burn-in,,,False,2,10,25,False,,,,,0
393,P11,2-back,2,3,K,burn-in,non-target,784.0,False,2,10,25,False,,,,,0
394,P11,2-back,2,4,W,target,non-target,344.0,False,2,10,25,False,1.0,1.0,0.0,0.0,0
395,P11,2-back,2,5,K,target,target,664.0,True,2,10,25,False,2.0,2.0,0.0,1.0,0
396,P11,2-back,2,6,T,non-target,non-target,1800.0,True,2,10,25,False,1.0,2.0,0.0,2.0,0
397,P11,2-back,2,7,V,non-target,non-target,840.0,True,2,10,25,False,0.0,2.0,0.0,3.0,0
398,P11,2-back,2,8,Z,non-target,non-target,488.0,True,2,10,25,False,0.0,1.0,0.0,4.0,0
399,P11,2-back,2,9,V,target,target,688.0,True,2,10,25,False,1.0,1.0,0.0,4.0,0
400,P11,2-back,2,10,H,non-target,non-target,488.0,True,2,10,25,False,1.0,1.0,0.0,4.0,0
401,P11,2-back,2,11,R,non-target,non-target,560.0,True,2,10,25,False,0.0,1.0,0.0,4.0,0
402,P11,2-back,2,12,L,non-target,non-target,616.0,True,2,10,25,False,0.0,1.0,0.0,4.0,0
403,P11,2-back,2,13,B,non-target,non-target,575.0,True,2,10,25,False,0.0,0.0,0.0,4.0,0
404,P11,2-back,2,14,L,target,non-target,1423.0,False,2,10,25,False,1.0,1.0,0.0,3.0,0
405,P11,2-back,2,15,T,non-target,non-target,743.0,True,2,10,25,False,1.0,1.0,0.0,3.0,0
406,P11,2-back,2,16,L,target,target,751.0,True,2,10,25,False,1.0,2.0,0.0,3.0,0
407,P11,2-back,2,17,Z,non-target,non-target,599.0,True,2,10,25,False,1.0,2.0,0.0,3.0,0
408,P11,2-back,2,18,L,target,target,895.0,True,2,10,25,False,1.0,2.0,0.0,4.0,0
409,P11,2-back,2,19,S,non-target,non-target,911.0,True,2,10,25,False,1.0,2.0,0.0,4.0,0
410,P11,2-back,2,20,K,non-target,non-target,543.0,True,2,10,25,False,0.0,1.0,0.0,4.0,0
411,P11,2-back,2,21,V,non-target,non-target,872.0,True,2,10,25,False,0.0,1.0,0.0,4.0,0
412,P11,2-back,2,22,D,non-target,non-target,592.0,True,2,10,25,False,0.0,0.0,0.0,4.0,0
413,P11,2-back,2,23,N,non-target,non-target,656.0,True,2,10,25,False,0.0,0.0,0.0,4.0,0
414,P11,2-back,2,24,Q,non-target,non-target,559.0,True,2,10,25,False,0.0,0.0,0.0,4.0,0
415,P11,2-back,2,25,W,non-target,non-target,1039.0,True,2,10,25,False,0.0,0.0,0.0,4.0,0
416,P11,2-back,2,26,M,non-target,non-target,1199.0,True,2,10,25,False,0.0,0.0,0.0,4.0,0
417,P11,2-back,2,27,W,target,target,799.0,True,2,10,25,False,1.0,1.0,0.0,4.0,0
418,P11,2-back,2,28,M,target,target,1119.0,True,2,10,25,False,2.0,2.0,0.0,4.0,0
419,P11,2-back,2,29,W,target,target,495.0,True,2,10,25,False,2.0,3.0,0.0,4.0,0
420,P11,2-back,2,30,M,target,target,1791.0,True,2,10,25,False,2.0,4.0,0.0,4.0,0
421,P11,2-back,3,1,F,burn-in,,,False,2,10,26,False,,,,,0
422,P11,2-back,3,2,P,burn-in,,,False,2,10,26,False,,,,,0
423,P11,2-back,3,3,J,burn-in,non-target,574.0,False,2,10,26,False,,,,,0
424,P11,2-back,3,4,Y,non-target,non-target,734.0,True,2,10,26,False,0.0,0.0,0.0,1.0,0
425,P11,2-back,3,5,G,non-target,non-target,534.0,True,2,10,26,False,0.0,0.0,0.0,2.0,0
426,P11,2-back,3,6,Y,target,target,639.0,True,2,10,26,False,1.0,1.0,0.0,3.0,0
427,P11,2-back,3,7,H,non-target,non-target,831.0,True,2,10,26,False,1.0,1.0,0.0,4.0,0
428,P11,2-back,3,8,C,non-target,non-target,543.0,True,2,10,26,False,0.0,1.0,0.0,4.0,0
429,P11,2-back,3,9,K,non-target,non-target,799.0,True,2,10,26,False,0.0,1.0,0.0,4.0,0
430,P11,2-back,3,10,J,non-target,non-target,943.0,True,2,10,26,False,0.0,0.0,0.0,4.0,0
431,P11,2-back,3,11,K,target,target,335.0,True,2,10,26,False,1.0,1.0,0.0,4.0,0
432,P11,2-back,3,12,J,target,target,1182.0,True,2,10,26,False,2.0,2.0,0.0,4.0,0
433,P11,2-back,3,13,K,target,target,1102.0,True,2,10,26,False,2.0,3.0,0.0,4.0,0
434,P11,2-back,3,14,C,non-target,non-target,486.0,True,2,10,26,False,1.0,3.0,0.0,4.0,0
435,P11,2-back,3,15,Q,non-target,non-target,942.0,True,2,10,26,False,0.0,2.0,0.0,4.0,0
436,P11,2-back,3,16,C,target,target,710.0,True,2,10,26,False,1.0,2.0,0.0,4.0,0
437,P11,2-back,3,17,Q,target,target,608.0,True,2,10,26,False,2.0,2.0,0.0,4.0,0
438,P11,2-back,3,18,R,non-target,non-target,494.0,True,2,10,26,False,1.0,2.0,0.0,4.0,0
439,P11,2-back,3,19,H,non-target,non-target,494.0,True,2,10,26,False,0.0,2.0,0.0,4.0,0
440,P11,2-back,3,20,R,target,non-target,774.0,False,2,10,26,False,1.0,2.0,0.0,3.0,0
441,P11,2-back,3,21,H,target,target,422.0,True,2,10,26,False,2.0,2.0,0.0,3.0,0
442,P11,2-back,3,22,P,non-target,non-target,477.0,True,2,10,26,False,1.0,2.0,0.0,3.0,0
443,P11,2-back,3,23,W,non-target,non-target,477.0,True,2,10,26,False,0.0,2.0,0.0,3.0,0
444,P11,2-back,3,24,T,non-target,non-target,741.0,True,2,10,26,False,0.0,1.0,0.0,4.0,0
445,P11,2-back,3,25,W,target,target,1678.0,True,2,10,26,False,1.0,1.0,0.0,4.0,0
446,P11,2-back,3,26,F,non-target,non-target,470.0,True,2,10,26,False,1.0,1.0,0.0,4.0,0
447,P11,2-back,3,27,L,non-target,non-target,550.0,True,2,10,26,False,0.0,1.0,0.0,4.0,0
448,P11,2-back,3,28,F,target,target,862.0,True,2,10,26,False,1.0,2.0,0.0,4.0,0
449,P11,2-back,3,29,N,non-target,non-target,414.0,True,2,10,26,False,1.0,1.0,0.0,4.0,0
450,P11,2-back,3,30,Y,non-target,non-target,686.0,True,2,10,26,False,0.0,1.0,0.0,4.0,0
451,P11,3-back,1,1,N,burn-in,non-target,1698.0,False,3,10,22,False,,,,,0
452,P11,3-back,1,2,B,burn-in,non-target,466.0,False,3,10,22,False,,,,,0
453,P11,3-back,1,3,H,burn-in,non-target,554.0,False,3,10,22,False,,,,,0
454,P11,3-back,1,4,N,target,non-target,1385.0,False,3,10,22,False,1.0,1.0,0.0,0.0,0
455,P11,3-back,1,5,D,non-target,non-target,537.0,True,3,10,22,False,0.0,1.0,0.0,1.0,0
456,P11,3-back,1,6,H,target,target,1409.0,True,3,10,22,False,1.0,2.0,0.0,2.0,0
457,P11,3-back,1,7,F,non-target,non-target,497.0,True,3,10,22,False,0.0,2.0,0.0,3.0,0
458,P11,3-back,1,8,D,target,non-target,529.0,False,3,10,22,False,1.0,2.0,0.0,3.0,0
459,P11,3-back,1,9,G,non-target,non-target,529.0,True,3,10,22,False,0.0,2.0,0.0,3.0,0
460,P11,3-back,1,10,L,non-target,non-target,513.0,True,3,10,22,False,0.0,1.0,0.0,3.0,0
461,P11,3-back,1,11,K,non-target,non-target,489.0,True,3,10,22,False,0.0,1.0,0.0,3.0,0
462,P11,3-back,1,12,G,target,target,737.0,True,3,10,22,False,1.0,1.0,0.0,4.0,0
463,P11,3-back,1,13,L,target,non-target,697.0,False,3,10,22,False,1.0,2.0,0.0,3.0,0
464,P11,3-back,1,14,Q,non-target,non-target,537.0,True,3,10,22,False,0.0,2.0,0.0,3.0,0
465,P11,3-back,1,15,T,non-target,non-target,457.0,True,3,10,22,False,0.0,2.0,0.0,3.0,0
466,P11,3-back,1,16,L,target,target,601.0,True,3,10,22,False,1.0,2.0,0.0,3.0,0
467,P11,3-back,1,17,Q,target,target,489.0,True,3,10,22,False,1.0,2.0,0.0,4.0,0
468,P11,3-back,1,18,C,non-target,non-target,449.0,True,3,10,22,False,0.0,2.0,0.0,4.0,0
469,P11,3-back,1,19,Z,non-target,non-target,473.0,True,3,10,22,False,0.0,2.0,0.0,4.0,0
470,P11,3-back,1,20,Y,non-target,non-target,657.0,True,3,10,22,False,0.0,1.0,0.0,4.0,0
471,P11,3-back,1,21,C,target,non-target,801.0,False,3,10,22,False,1.0,1.0,0.0,3.0,0
472,P11,3-back,1,22,S,non-target,non-target,553.0,True,3,10,22,False,0.0,1.0,0.0,3.0,0
473,P11,3-back,1,23,L,non-target,non-target,481.0,True,3,10,22,False,0.0,1.0,0.0,3.0,0
474,P11,3-back,1,24,C,target,target,641.0,True,3,10,22,False,1.0,2.0,0.0,3.0,0
475,P11,3-back,1,25,P,non-target,non-target,513.0,True,3,10,22,False,0.0,1.0,0.0,4.0,0
476,P11,3-back,1,26,H,non-target,non-target,448.0,True,3,10,22,False,0.0,1.0,0.0,4.0,0
477,P11,3-back,1,27,R,non-target,non-target,753.0,True,3,10,22,False,0.0,1.0,0.0,4.0,0
478,P11,3-back,1,28,Q,non-target,non-target,520.0,True,3,10,22,False,0.0,0.0,0.0,4.0,0
479,P11,3-back,1,29,H,target,non-target,880.0,False,3,10,22,False,1.0,1.0,0.0,3.0,0
480,P11,3-back,1,30,Z,non-target,non-target,816.0,True,3,10,22,False,0.0,1.0,0.0,3.0,0
481,P11,3-back,2,1,F,burn-in,non-target,1064.0,False,3,10,25,False,,,,,1
482,P11,3-back,2,2,S,burn-in,non-target,360.0,False,3,10,25,False,,,,,1
483,P11,3-back,2,3,K,burn-in,non-target,376.0,False,3,10,25,False,,,,,1
484,P11,3-back,2,4,F,target,target,392.0,True,3,10,25,False,1.0,1.0,0.0,1.0,1
485,P11,3-back,2,5,C,non-target,non-target,400.0,True,3,10,25,False,0.0,1.0,0.0,2.0,1
486,P11,3-back,2,6,D,non-target,non-target,456.0,True,3,10,25,False,0.0,1.0,0.0,3.0,1
487,P11,3-back,2,7,F,target,target,1000.0,True,3,10,25,False,1.0,2.0,0.0,4.0,1
488,P11,3-back,2,8,B,non-target,non-target,480.0,True,3,10,25,False,0.0,1.0,0.0,4.0,1
489,P11,3-back,2,9,T,non-target,non-target,512.0,True,3,10,25,False,0.0,1.0,0.0,4.0,1
490,P11,3-back,2,10,F,target,target,840.0,True,3,10,25,False,1.0,2.0,0.0,4.0,1
491,P11,3-back,2,11,V,non-target,non-target,600.0,True,3,10,25,False,0.0,1.0,0.0,4.0,1
492,P11,3-back,2,12,G,non-target,non-target,512.0,True,3,10,25,False,0.0,1.0,0.0,4.0,1
493,P11,3-back,2,13,M,non-target,non-target,519.0,True,3,10,25,False,0.0,1.0,0.0,4.0,1
494,P11,3-back,2,14,J,non-target,non-target,671.0,True,3,10,25,False,0.0,0.0,0.0,4.0,1
495,P11,3-back,2,15,G,target,target,847.0,True,3,10,25,False,1.0,1.0,0.0,4.0,1
496,P11,3-back,2,16,N,non-target,non-target,431.0,True,3,10,25,False,0.0,1.0,0.0,4.0,1
497,P11,3-back,2,17,W,non-target,non-target,447.0,True,3,10,25,False,0.0,1.0,0.0,4.0,1
498,P11,3-back,2,18,Y,non-target,non-target,735.0,True,3,10,25,False,0.0,1.0,0.0,4.0,1
499,P11,3-back,2,19,L,non-target,non-target,847.0,True,3,10,25,False,0.0,0.0,0.0,4.0,1
500,P11,3-back,2,20,W,target,target,776.0,True,3,10,25,False,1.0,1.0,0.0,4.0,1
501,P11,3-back,2,21,Y,target,non-target,1352.0,False,3,10,25,False,1.0,2.0,0.0,3.0,1
502,P11,3-back,2,22,S,non-target,non-target,656.0,True,3,10,25,False,0.0,2.0,0.0,3.0,1
503,P11,3-back,2,23,W,target,target,471.0,True,3,10,25,False,1.0,3.0,0.0,3.0,1
504,P11,3-back,2,24,Y,target,target,2095.0,True,3,10,25,False,1.0,3.0,0.0,3.0,1
505,P11,3-back,2,25,C,non-target,non-target,695.0,True,3,10,25,False,0.0,2.0,0.0,4.0,1
506,P11,3-back,2,26,P,non-target,non-target,887.0,True,3,10,25,False,0.0,2.0,0.0,4.0,1
507,P11,3-back,2,27,Y,target,target,935.0,True,3,10,25,False,1.0,2.0,0.0,4.0,1
508,P11,3-back,2,28,Y,non-target,non-target,791.0,True,3,10,25,True,1.0,1.0,1.0,4.0,1
509,P11,3-back,2,29,P,target,non-target,999.0,False,3,10,25,False,2.0,2.0,1.0,3.0,1
510,P11,3-back,2,30,F,non-target,non-target,727.0,True,3,10,25,False,1.0,2.0,1.0,3.0,1
511,P11,3-back,3,1,H,burn-in,non-target,690.0,False,3,10,25,False,,,,,0
512,P11,3-back,3,2,V,burn-in,non-target,410.0,False,3,10,25,False,,,,,0
513,P11,3-back,3,3,B,burn-in,non-target,385.0,False,3,10,25,False,,,,,0
514,P11,3-back,3,4,W,non-target,non-target,457.0,True,3,10,25,False,0.0,0.0,0.0,1.0,0
515,P11,3-back,3,5,K,non-target,non-target,465.0,True,3,10,25,False,0.0,0.0,0.0,2.0,0
516,P11,3-back,3,6,Q,non-target,non-target,425.0,True,3,10,25,False,0.0,0.0,0.0,3.0,0
517,P11,3-back,3,7,Z,non-target,non-target,665.0,True,3,10,25,False,0.0,0.0,0.0,4.0,0
518,P11,3-back,3,8,K,target,target,689.0,True,3,10,25,False,1.0,1.0,0.0,4.0,0
519,P11,3-back,3,9,J,non-target,non-target,577.0,True,3,10,25,False,0.0,1.0,0.0,4.0,0
520,P11,3-back,3,10,Z,target,target,697.0,True,3,10,25,False,1.0,2.0,0.0,4.0,0
521,P11,3-back,3,11,M,non-target,non-target,553.0,True,3,10,25,False,0.0,2.0,0.0,4.0,0
522,P11,3-back,3,12,T,non-target,non-target,641.0,True,3,10,25,False,0.0,1.0,0.0,4.0,0
523,P11,3-back,3,13,Z,target,target,969.0,True,3,10,25,False,1.0,2.0,0.0,4.0,0
524,P11,3-back,3,14,M,target,non-target,904.0,False,3,10,25,False,1.0,2.0,0.0,3.0,0
525,P11,3-back,3,15,N,non-target,non-target,553.0,True,3,10,25,False,0.0,2.0,0.0,3.0,0
526,P11,3-back,3,16,R,non-target,non-target,673.0,True,3,10,25,False,0.0,2.0,0.0,3.0,0
527,P11,3-back,3,17,D,non-target,non-target,537.0,True,3,10,25,False,0.0,1.0,0.0,3.0,0
528,P11,3-back,3,18,G,non-target,non-target,561.0,True,3,10,25,False,0.0,0.0,0.0,4.0,0
529,P11,3-back,3,19,B,non-target,non-target,633.0,True,3,10,25,False,0.0,0.0,0.0,4.0,0
530,P11,3-back,3,20,D,target,target,665.0,True,3,10,25,False,1.0,1.0,0.0,4.0,0
531,P11,3-back,3,21,Y,non-target,non-target,633.0,True,3,10,25,False,0.0,1.0,0.0,4.0,0
532,P11,3-back,3,22,B,target,target,817.0,True,3,10,25,False,1.0,2.0,0.0,4.0,0
533,P11,3-back,3,23,D,target,target,697.0,True,3,10,25,False,1.0,3.0,0.0,4.0,0
534,P11,3-back,3,24,Z,non-target,non-target,944.0,True,3,10,25,False,0.0,2.0,0.0,4.0,0
535,P11,3-back,3,25,B,target,non-target,1600.0,False,3,10,25,False,1.0,3.0,0.0,3.0,0
536,P11,3-back,3,26,V,non-target,non-target,768.0,True,3,10,25,False,0.0,2.0,0.0,3.0,0
537,P11,3-back,3,27,Z,target,target,1632.0,True,3,10,25,False,1.0,2.0,0.0,3.0,0
538,P11,3-back,3,28,B,target,target,1144.0,True,3,10,25,False,1.0,3.0,0.0,3.0,0
539,P11,3-back,3,29,S,non-target,non-target,760.0,True,3,10,25,False,0.0,2.0,0.0,4.0,0
540,P11,3-back,3,30,H,non-target,non-target,600.0,True,3,10,25,False,0.0,2.0,0.0,4.0,0
541,P12,2-back,1,1,Z,burn-in,non-target,492.0,False,2,10,27,False,,,,,0
542,P12,2-back,1,2,T,burn-in,non-target,581.0,False,2,10,27,False,,,,,0
543,P12,2-back,1,3,W,burn-in,non-target,628.0,False,2,10,27,False,,,,,0
544,P12,2-back,1,4,S,non-target,non-target,524.0,True,2,10,27,False,0.0,0.0,0.0,1.0,0
545,P12,2-back,1,5,R,non-target,non-target,732.0,True,2,10,27,False,0.0,0.0,0.0,2.0,0
546,P12,2-back,1,6,S,target,target,364.0,True,2,10,27,False,1.0,1.0,0.0,3.0,0
547,P12,2-back,1,7,B,non-target,non-target,492.0,True,2,10,27,False,1.0,1.0,0.0,4.0,0
548,P12,2-back,1,8,M,non-target,non-target,572.0,True,2,10,27,False,0.0,1.0,0.0,4.0,0
549,P12,2-back,1,9,V,non-target,non-target,508.0,True,2,10,27,False,0.0,1.0,0.0,4.0,0
550,P12,2-back,1,10,M,target,target,381.0,True,2,10,27,False,1.0,1.0,0.0,4.0,0
551,P12,2-back,1,11,L,non-target,non-target,589.0,True,2,10,27,False,1.0,1.0,0.0,4.0,0
552,P12,2-back,1,12,Y,non-target,non-target,581.0,True,2,10,27,False,0.0,1.0,0.0,4.0,0
553,P12,2-back,1,13,L,target,target,533.0,True,2,10,27,False,1.0,2.0,0.0,4.0,0
554,P12,2-back,1,14,Y,target,target,405.0,True,2,10,27,False,2.0,2.0,0.0,4.0,0
555,P12,2-back,1,15,L,target,target,493.0,True,2,10,27,False,2.0,3.0,0.0,4.0,0
556,P12,2-back,1,16,D,non-target,non-target,413.0,True,2,10,27,False,1.0,3.0,0.0,4.0,0
557,P12,2-back,1,17,K,non-target,non-target,516.0,True,2,10,27,False,0.0,2.0,0.0,4.0,0
558,P12,2-back,1,18,D,target,target,396.0,True,2,10,27,False,1.0,2.0,0.0,4.0,0
559,P12,2-back,1,19,S,non-target,non-target,556.0,True,2,10,27,False,1.0,1.0,0.0,4.0,0
560,P12,2-back,1,20,D,target,target,604.0,True,2,10,27,False,1.0,2.0,0.0,4.0,0
561,P12,2-back,1,21,N,non-target,non-target,500.0,True,2,10,27,False,1.0,2.0,0.0,4.0,0
562,P12,2-back,1,22,Z,non-target,non-target,540.0,True,2,10,27,False,0.0,1.0,0.0,4.0,0
563,P12,2-back,1,23,T,non-target,non-target,492.0,True,2,10,27,False,0.0,1.0,0.0,4.0,0
564,P12,2-back,1,24,Z,target,target,324.0,True,2,10,27,False,1.0,1.0,0.0,4.0,0
565,P12,2-back,1,25,T,target,target,460.0,True,2,10,27,False,2.0,2.0,0.0,4.0,0
566,P12,2-back,1,26,Z,target,target,716.0,True,2,10,27,False,2.0,3.0,0.0,4.0,0
567,P12,2-back,1,27,F,non-target,non-target,572.0,True,2,10,27,False,1.0,3.0,0.0,4.0,0
568,P12,2-back,1,28,J,non-target,non-target,588.0,True,2,10,27,False,0.0,2.0,0.0,4.0,0
569,P12,2-back,1,29,B,non-target,non-target,468.0,True,2,10,27,False,0.0,1.0,0.0,4.0,0
570,P12,2-back,1,30,M,non-target,non-target,452.0,True,2,10,27,False,0.0,0.0,0.0,4.0,0
571,P12,2-back,2,1,W,burn-in,non-target,417.0,False,2,10,25,False,,,,,0
572,P12,2-back,2,2,C,burn-in,non-target,649.0,False,2,10,25,False,,,,,0
573,P12,2-back,2,3,R,burn-in,non-target,689.0,False,2,10,25,False,,,,,0
574,P12,2-back,2,4,P,non-target,non-target,417.0,True,2,10,25,False,0.0,0.0,0.0,1.0,0
575,P12,2-back,2,5,Q,non-target,non-target,417.0,True,2,10,25,False,0.0,0.0,0.0,2.0,0
576,P12,2-back,2,6,H,non-target,non-target,473.0,True,2,10,25,False,0.0,0.0,0.0,3.0,0
577,P12,2-back,2,7,G,non-target,non-target,441.0,True,2,10,25,False,0.0,0.0,0.0,4.0,0
578,P12,2-back,2,8,R,non-target,non-target,456.0,True,2,10,25,False,0.0,0.0,0.0,4.0,0
579,P12,2-back,2,9,Q,non-target,non-target,472.0,True,2,10,25,False,0.0,0.0,0.0,4.0,0
580,P12,2-back,2,10,Y,non-target,non-target,624.0,True,2,10,25,False,0.0,0.0,0.0,4.0,0
581,P12,2-back,2,11,D,non-target,non-target,448.0,True,2,10,25,False,0.0,0.0,0.0,4.0,0
582,P12,2-back,2,12,W,non-target,non-target,472.0,True,2,10,25,False,0.0,0.0,0.0,4.0,0
583,P12,2-back,2,13,Z,non-target,non-target,520.0,True,2,10,25,False,0.0,0.0,0.0,4.0,0
584,P12,2-back,2,14,W,target,target,512.0,True,2,10,25,False,1.0,1.0,0.0,4.0,0
585,P12,2-back,2,15,Z,target,target,2456.0,True,2,10,25,False,2.0,2.0,0.0,4.0,0
586,P12,2-back,2,16,W,target,target,648.0,True,2,10,25,False,2.0,3.0,0.0,4.0,0
587,P12,2-back,2,17,Z,target,target,560.0,True,2,10,25,False,2.0,4.0,0.0,4.0,0
588,P12,2-back,2,18,W,target,target,448.0,True,2,10,25,False,2.0,4.0,0.0,4.0,0
589,P12,2-back,2,19,Z,target,non-target,408.0,False,2,10,25,False,2.0,4.0,0.0,3.0,0
590,P12,2-back,2,20,W,target,target,464.0,True,2,10,25,False,2.0,4.0,0.0,3.0,0
591,P12,2-back,2,21,H,non-target,non-target,464.0,True,2,10,25,False,1.0,3.0,0.0,3.0,0
592,P12,2-back,2,22,W,target,non-target,967.0,False,2,10,25,False,1.0,3.0,0.0,2.0,0
593,P12,2-back,2,23,H,target,target,535.0,True,2,10,25,False,2.0,3.0,0.0,3.0,0
594,P12,2-back,2,24,W,target,target,432.0,True,2,10,25,False,2.0,3.0,0.0,3.0,0
595,P12,2-back,2,25,N,non-target,non-target,448.0,True,2,10,25,False,1.0,3.0,0.0,3.0,0
596,P12,2-back,2,26,M,non-target,non-target,760.0,True,2,10,25,False,0.0,2.0,0.0,4.0,0
597,P12,2-back,2,27,L,non-target,non-target,360.0,True,2,10,25,False,0.0,1.0,0.0,4.0,0
598,P12,2-back,2,28,V,non-target,non-target,576.0,True,2,10,25,False,0.0,0.0,0.0,4.0,0
599,P12,2-back,2,29,J,non-target,non-target,424.0,True,2,10,25,False,0.0,0.0,0.0,4.0,0
600,P12,2-back,2,30,K,non-target,non-target,424.0,True,2,10,25,False,0.0,0.0,0.0,4.0,0
601,P12,2-back,3,1,S,burn-in,non-target,1357.0,False,2,10,27,False,,,,,0
602,P12,2-back,3,2,B,burn-in,non-target,597.0,False,2,10,27,False,,,,,0
603,P12,2-back,3,3,G,burn-in,non-target,485.0,False,2,10,27,False,,,,,0
604,P12,2-back,3,4,F,non-target,non-target,572.0,True,2,10,27,False,0.0,0.0,0.0,1.0,0
605,P12,2-back,3,5,T,non-target,non-target,484.0,True,2,10,27,False,0.0,0.0,0.0,2.0,0
606,P12,2-back,3,6,P,non-target,non-target,412.0,True,2,10,27,False,0.0,0.0,0.0,3.0,0
607,P12,2-back,3,7,T,target,target,332.0,True,2,10,27,False,1.0,1.0,0.0,4.0,0
608,P12,2-back,3,8,P,target,target,500.0,True,2,10,27,False,2.0,2.0,0.0,4.0,0
609,P12,2-back,3,9,C,non-target,non-target,452.0,True,2,10,27,False,1.0,2.0,0.0,4.0,0
610,P12,2-back,3,10,Z,non-target,non-target,396.0,True,2,10,27,False,0.0,2.0,0.0,4.0,0
611,P12,2-back,3,11,C,target,target,420.0,True,2,10,27,False,1.0,2.0,0.0,4.0,0
612,P12,2-back,3,12,Q,non-target,non-target,477.0,True,2,10,27,False,1.0,1.0,0.0,4.0,0
613,P12,2-back,3,13,V,non-target,non-target,445.0,True,2,10,27,False,0.0,1.0,0.0,4.0,0
614,P12,2-back,3,14,Q,target,target,389.0,True,2,10,27,False,1.0,2.0,0.0,4.0,0
615,P12,2-back,3,15,V,target,target,565.0,True,2,10,27,False,2.0,2.0,0.0,4.0,0
616,P12,2-back,3,16,G,non-target,non-target,341.0,True,2,10,27,False,1.0,2.0,0.0,4.0,0
617,P12,2-back,3,17,P,non-target,non-target,533.0,True,2,10,27,False,0.0,2.0,0.0,4.0,0
618,P12,2-back,3,18,G,target,target,348.0,True,2,10,27,False,1.0,2.0,0.0,4.0,0
619,P12,2-back,3,19,W,non-target,non-target,452.0,True,2,10,27,False,1.0,1.0,0.0,4.0,0
620,P12,2-back,3,20,L,non-target,non-target,676.0,True,2,10,27,False,0.0,1.0,0.0,4.0,0
621,P12,2-back,3,21,W,target,target,364.0,True,2,10,27,False,1.0,2.0,0.0,4.0,0
622,P12,2-back,3,22,B,non-target,non-target,476.0,True,2,10,27,False,1.0,1.0,0.0,4.0,0
623,P12,2-back,3,23,W,target,target,516.0,True,2,10,27,False,1.0,2.0,0.0,4.0,0
624,P12,2-back,3,24,F,non-target,non-target,412.0,True,2,10,27,False,1.0,2.0,0.0,4.0,0
625,P12,2-back,3,25,C,non-target,non-target,644.0,True,2,10,27,False,0.0,1.0,0.0,4.0,0
626,P12,2-back,3,26,F,target,target,444.0,True,2,10,27,False,1.0,2.0,0.0,4.0,0
627,P12,2-back,3,27,C,target,target,372.0,True,2,10,27,False,2.0,2.0,0.0,4.0,0
628,P12,2-back,3,28,M,non-target,non-target,652.0,True,2,10,27,False,1.0,2.0,0.0,4.0,0
629,P12,2-back,3,29,T,non-target,non-target,524.0,True,2,10,27,False,0.0,2.0,0.0,4.0,0
630,P12,2-back,3,30,K,non-target,non-target,452.0,True,2,10,27,False,0.0,1.0,0.0,4.0,0
631,P12,3-back,1,1,R,burn-in,non-target,410.0,False,3,10,25,False,,,,,0
632,P12,3-back,1,2,V,burn-in,non-target,722.0,False,3,10,25,False,,,,,0
633,P12,3-back,1,3,B,burn-in,non-target,402.0,False,3,10,25,False,,,,,0
634,P12,3-back,1,4,R,target,target,698.0,True,3,10,25,False,1.0,1.0,0.0,1.0,0
635,P12,3-back,1,5,V,target,target,842.0,True,3,10,25,False,1.0,2.0,0.0,2.0,0
636,P12,3-back,1,6,H,non-target,non-target,690.0,True,3,10,25,False,0.0,2.0,0.0,3.0,0
637,P12,3-back,1,7,S,non-target,non-target,842.0,True,3,10,25,False,0.0,2.0,0.0,4.0,0
638,P12,3-back,1,8,T,non-target,non-target,1178.0,True,3,10,25,False,0.0,1.0,0.0,4.0,0
639,P12,3-back,1,9,W,non-target,non-target,755.0,True,3,10,25,False,0.0,0.0,0.0,4.0,0
640,P12,3-back,1,10,Z,non-target,non-target,539.0,True,3,10,25,False,0.0,0.0,0.0,4.0,0
641,P12,3-back,1,11,T,target,target,362.0,True,3,10,25,False,1.0,1.0,0.0,4.0,0
642,P12,3-back,1,12,W,target,target,842.0,True,3,10,25,False,1.0,2.0,0.0,4.0,0
643,P12,3-back,1,13,L,non-target,non-target,570.0,True,3,10,25,False,0.0,2.0,0.0,4.0,0
644,P12,3-back,1,14,Y,non-target,non-target,1050.0,True,3,10,25,False,0.0,2.0,0.0,4.0,0
645,P12,3-back,1,15,N,non-target,non-target,642.0,True,3,10,25,False,0.0,1.0,0.0,4.0,0
646,P12,3-back,1,16,G,non-target,non-target,706.0,True,3,10,25,False,0.0,0.0,0.0,4.0,0
647,P12,3-back,1,17,Y,target,target,547.0,True,3,10,25,False,1.0,1.0,0.0,4.0,0
648,P12,3-back,1,18,Q,non-target,non-target,666.0,True,3,10,25,False,0.0,1.0,0.0,4.0,0
649,P12,3-back,1,19,D,non-target,non-target,1098.0,True,3,10,25,False,0.0,1.0,0.0,4.0,0
650,P12,3-back,1,20,Y,target,target,906.0,True,3,10,25,False,1.0,2.0,0.0,4.0,0
651,P12,3-back,1,21,Q,target,target,1218.0,True,3,10,25,False,1.0,2.0,0.0,4.0,0
652,P12,3-back,1,22,J,non-target,non-target,386.0,True,3,10,25,False,0.0,2.0,0.0,4.0,0
653,P12,3-back,1,23,Y,target,target,850.0,True,3,10,25,False,1.0,3.0,0.0,4.0,0
654,P12,3-back,1,24,C,non-target,non-target,850.0,True,3,10,25,False,0.0,2.0,0.0,4.0,0
655,P12,3-back,1,25,G,non-target,non-target,705.0,True,3,10,25,False,0.0,1.0,0.0,4.0,0
656,P12,3-back,1,26,H,non-target,non-target,1113.0,True,3,10,25,False,0.0,1.0,0.0,4.0,0
657,P12,3-back,1,27,Z,non-target,target,777.0,False,3,10,25,False,0.0,0.0,0.0,3.0,0
658,P12,3-back,1,28,G,target,target,1146.0,True,3,10,25,False,1.0,1.0,0.0,3.0,0
659,P12,3-back,1,29,Y,non-target,target,1705.0,False,3,10,25,False,0.0,1.0,0.0,2.0,0
660,P12,3-back,1,30,Z,target,target,449.0,True,3,10,25,False,1.0,2.0,0.0,2.0,0
661,P12,3-back,2,1,L,burn-in,non-target,489.0,False,3,10,24,False,,,,,1
662,P12,3-back,2,2,B,burn-in,non-target,1234.0,False,3,10,24,False,,,,,1
663,P12,3-back,2,3,T,burn-in,non-target,681.0,False,3,10,24,False,,,,,1
664,P12,3-back,2,4,K,non-target,non-target,1164.0,True,3,10,24,False,0.0,0.0,0.0,1.0,1
665,P12,3-back,2,5,R,non-target,non-target,1297.0,True,3,10,24,False,0.0,0.0,0.0,2.0,1
666,P12,3-back,2,6,S,non-target,non-target,744.0,True,3,10,24,False,0.0,0.0,0.0,3.0,1
667,P12,3-back,2,7,P,non-target,non-target,1161.0,True,3,10,24,False,0.0,0.0,0.0,4.0,1
668,P12,3-back,2,8,Q,non-target,non-target,825.0,True,3,10,24,False,0.0,0.0,0.0,4.0,1
669,P12,3-back,2,9,D,non-target,non-target,617.0,True,3,10,24,False,0.0,0.0,0.0,4.0,1
670,P12,3-back,2,10,P,target,target,489.0,True,3,10,24,False,1.0,1.0,0.0,4.0,1
671,P12,3-back,2,11,Q,target,target,2153.0,True,3,10,24,False,1.0,2.0,0.0,4.0,1
672,P12,3-back,2,12,D,target,target,1553.0,True,3,10,24,False,1.0,3.0,0.0,4.0,1
673,P12,3-back,2,13,P,target,target,1441.0,True,3,10,24,False,1.0,4.0,0.0,4.0,1
674,P12,3-back,2,14,F,non-target,non-target,918.0,True,3,10,24,False,0.0,3.0,0.0,4.0,1
675,P12,3-back,2,15,D,target,target,449.0,True,3,10,24,False,1.0,3.0,0.0,4.0,1
676,P12,3-back,2,16,N,non-target,non-target,767.0,True,3,10,24,False,0.0,2.0,0.0,4.0,1
677,P12,3-back,2,17,F,target,target,769.0,True,3,10,24,False,1.0,2.0,0.0,4.0,1
678,P12,3-back,2,18,M,non-target,non-target,681.0,True,3,10,24,False,0.0,2.0,0.0,4.0,1
679,P12,3-back,2,19,N,target,non-target,1665.0,False,3,10,24,False,1.0,2.0,0.0,3.0,1
680,P12,3-back,2,20,F,target,non-target,2232.0,False,3,10,24,False,1.0,3.0,0.0,2.0,1
681,P12,3-back,2,21,V,non-target,non-target,1008.0,True,3,10,24,False,0.0,2.0,0.0,2.0,1
682,P12,3-back,2,22,N,target,target,1197.0,True,3,10,24,False,1.0,3.0,0.0,2.0,1
683,P12,3-back,2,23,W,non-target,non-target,635.0,True,3,10,24,False,0.0,2.0,0.0,3.0,1
684,P12,3-back,2,24,J,non-target,non-target,784.0,True,3,10,24,False,0.0,1.0,0.0,4.0,1
685,P12,3-back,2,25,Z,non-target,target,1392.0,False,3,10,24,False,0.0,1.0,0.0,3.0,1
686,P12,3-back,2,26,T,non-target,non-target,1512.0,True,3,10,24,False,0.0,0.0,0.0,3.0,1
687,P12,3-back,2,27,W,non-target,non-target,2272.0,True,3,10,24,True,0.0,0.0,1.0,3.0,1
688,P12,3-back,2,28,Z,target,target,712.0,True,3,10,24,False,1.0,1.0,1.0,3.0,1
689,P12,3-back,2,29,C,non-target,non-target,504.0,True,3,10,24,False,0.0,1.0,1.0,4.0,1
690,P12,3-back,2,30,F,non-target,non-target,1136.0,True,3,10,24,False,0.0,1.0,1.0,4.0,1
691,P12,3-back,3,1,V,burn-in,non-target,952.0,False,3,10,25,False,,,,,0
692,P12,3-back,3,2,N,burn-in,non-target,792.0,False,3,10,25,False,,,,,0
693,P12,3-back,3,3,P,burn-in,non-target,423.0,False,3,10,25,False,,,,,0
694,P12,3-back,3,4,H,non-target,non-target,656.0,True,3,10,25,False,0.0,0.0,0.0,1.0,0
695,P12,3-back,3,5,N,target,target,1032.0,True,3,10,25,False,1.0,1.0,0.0,2.0,0
696,P12,3-back,3,6,D,non-target,non-target,1272.0,True,3,10,25,False,0.0,1.0,0.0,3.0,0
697,P12,3-back,3,7,H,target,target,616.0,True,3,10,25,False,1.0,2.0,0.0,4.0,0
698,P12,3-back,3,8,R,non-target,non-target,1312.0,True,3,10,25,False,0.0,2.0,0.0,4.0,0
699,P12,3-back,3,9,D,target,non-target,2424.0,False,3,10,25,False,1.0,2.0,0.0,3.0,0
700,P12,3-back,3,10,M,non-target,non-target,3232.0,True,3,10,25,False,0.0,2.0,0.0,3.0,0
701,P12,3-back,3,11,K,non-target,non-target,2384.0,True,3,10,25,False,0.0,1.0,0.0,3.0,0
702,P12,3-back,3,12,L,non-target,non-target,1461.0,True,3,10,25,False,0.0,1.0,0.0,3.0,0
703,P12,3-back,3,13,M,target,target,696.0,True,3,10,25,False,1.0,1.0,0.0,4.0,0
704,P12,3-back,3,14,G,non-target,non-target,904.0,True,3,10,25,False,0.0,1.0,0.0,4.0,0
705,P12,3-back,3,15,Y,non-target,non-target,720.0,True,3,10,25,False,0.0,1.0,0.0,4.0,0
706,P12,3-back,3,16,M,target,target,1111.0,True,3,10,25,False,1.0,2.0,0.0,4.0,0
707,P12,3-back,3,17,Q,non-target,non-target,1223.0,True,3,10,25,False,0.0,1.0,0.0,4.0,0
708,P12,3-back,3,18,S,non-target,non-target,1319.0,True,3,10,25,False,0.0,1.0,0.0,4.0,0
709,P12,3-back,3,19,B,non-target,non-target,1567.0,True,3,10,25,False,0.0,1.0,0.0,4.0,0
710,P12,3-back,3,20,G,non-target,non-target,1255.0,True,3,10,25,False,0.0,0.0,0.0,4.0,0
711,P12,3-back,3,21,S,non-target,target,1135.0,False,3,10,25,False,1.0,0.0,0.0,3.0,0
712,P12,3-back,3,22,B,target,target,455.0,True,3,10,25,False,1.0,1.0,0.0,3.0,0
713,P12,3-back,3,23,Y,non-target,non-target,1327.0,True,3,10,25,False,0.0,1.0,0.0,3.0,0
714,P12,3-back,3,24,P,non-target,non-target,1887.0,True,3,10,25,False,0.0,1.0,0.0,3.0,0
715,P12,3-back,3,25,J,non-target,non-target,991.0,True,3,10,25,False,0.0,1.0,0.0,4.0,0
716,P12,3-back,3,26,Y,target,target,543.0,True,3,10,25,False,1.0,1.0,0.0,4.0,0
717,P12,3-back,3,27,P,target,target,2091.0,True,3,10,25,False,1.0,2.0,0.0,4.0,0
718,P12,3-back,3,28,J,target,target,767.0,True,3,10,25,False,1.0,3.0,0.0,4.0,0
719,P12,3-back,3,29,Y,target,target,623.0,True,3,10,25,False,1.0,4.0,0.0,4.0,0
720,P12,3-back,3,30,W,non-target,non-target,638.0,True,3,10,25,False,0.0,3.0,0.0,4.0,0
721,P13,2-back,1,1,C,burn-in,non-target,1872.0,False,2,10,27,False,,,,,0
722,P13,2-back,1,2,N,burn-in,non-target,744.0,False,2,10,27,False,,,,,0
723,P13,2-back,1,3,F,burn-in,non-target,521.0,False,2,10,27,False,,,,,0
724,P13,2-back,1,4,R,non-target,non-target,1137.0,True,2,10,27,False,0.0,0.0,0.0,1.0,0
725,P13,2-back,1,5,F,target,target,481.0,True,2,10,27,False,1.0,1.0,0.0,2.0,0
726,P13,2-back,1,6,V,non-target,non-target,433.0,True,2,10,27,False,1.0,1.0,0.0,3.0,0
727,P13,2-back,1,7,Y,non-target,non-target,1633.0,True,2,10,27,False,0.0,1.0,0.0,4.0,0
728,P13,2-back,1,8,B,non-target,non-target,577.0,True,2,10,27,False,0.0,1.0,0.0,4.0,0
729,P13,2-back,1,9,Y,target,target,585.0,True,2,10,27,False,1.0,1.0,0.0,4.0,0
730,P13,2-back,1,10,B,target,target,601.0,True,2,10,27,False,2.0,2.0,0.0,4.0,0
731,P13,2-back,1,11,L,non-target,non-target,601.0,True,2,10,27,False,1.0,2.0,0.0,4.0,0
732,P13,2-back,1,12,Q,non-target,non-target,912.0,True,2,10,27,False,0.0,2.0,0.0,4.0,0
733,P13,2-back,1,13,L,target,target,672.0,True,2,10,27,False,1.0,2.0,0.0,4.0,0
734,P13,2-back,1,14,J,non-target,non-target,480.0,True,2,10,27,False,1.0,1.0,0.0,4.0,0
735,P13,2-back,1,15,T,non-target,non-target,608.0,True,2,10,27,False,0.0,1.0,0.0,4.0,0
736,P13,2-back,1,16,K,non-target,non-target,680.0,True,2,10,27,False,0.0,1.0,0.0,4.0,0
737,P13,2-back,1,17,R,non-target,non-target,856.0,True,2,10,27,False,0.0,0.0,0.0,4.0,0
738,P13,2-back,1,18,W,non-target,non-target,880.0,True,2,10,27,False,0.0,0.0,0.0,4.0,0
739,P13,2-back,1,19,G,non-target,non-target,736.0,True,2,10,27,False,0.0,0.0,0.0,4.0,0
740,P13,2-back,1,20,W,target,target,400.0,True,2,10,27,False,1.0,1.0,0.0,4.0,0
741,P13,2-back,1,21,P,non-target,non-target,456.0,True,2,10,27,False,1.0,1.0,0.0,4.0,0
742,P13,2-back,1,22,N,non-target,non-target,968.0,True,2,10,27,False,0.0,1.0,0.0,4.0,0
743,P13,2-back,1,23,P,target,target,504.0,True,2,10,27,False,1.0,2.0,0.0,4.0,0
744,P13,2-back,1,24,Y,non-target,non-target,656.0,True,2,10,27,False,1.0,1.0,0.0,4.0,0
745,P13,2-back,1,25,S,non-target,non-target,832.0,True,2,10,27,False,0.0,1.0,0.0,4.0,0
746,P13,2-back,1,26,B,non-target,non-target,1120.0,True,2,10,27,False,0.0,1.0,0.0,4.0,0
747,P13,2-back,1,27,S,target,target,823.0,True,2,10,27,False,1.0,1.0,0.0,4.0,0
748,P13,2-back,1,28,B,target,target,1095.0,True,2,10,27,False,2.0,2.0,0.0,4.0,0
749,P13,2-back,1,29,S,target,target,1023.0,True,2,10,27,False,2.0,3.0,0.0,4.0,0
750,P13,2-back,1,30,B,target,target,1141.0,True,2,10,27,False,2.0,4.0,0.0,4.0,0
751,P13,2-back,2,1,C,burn-in,non-target,1160.0,False,2,10,27,False,,,,,0
752,P13,2-back,2,2,D,burn-in,non-target,1120.0,False,2,10,27,False,,,,,0
753,P13,2-back,2,3,Z,burn-in,non-target,448.0,False,2,10,27,False,,,,,0
754,P13,2-back,2,4,D,target,target,552.0,True,2,10,27,False,1.0,1.0,0.0,1.0,0
755,P13,2-back,2,5,Z,target,target,440.0,True,2,10,27,False,2.0,2.0,0.0,2.0,0
756,P13,2-back,2,6,D,target,target,1048.0,True,2,10,27,False,2.0,3.0,0.0,3.0,0
757,P13,2-back,2,7,M,non-target,non-target,528.0,True,2,10,27,False,1.0,3.0,0.0,4.0,0
758,P13,2-back,2,8,F,non-target,non-target,1023.0,True,2,10,27,False,0.0,2.0,0.0,4.0,0
759,P13,2-back,2,9,V,non-target,non-target,831.0,True,2,10,27,False,0.0,1.0,0.0,4.0,0
760,P13,2-back,2,10,H,non-target,non-target,727.0,True,2,10,27,False,0.0,0.0,0.0,4.0,0
761,P13,2-back,2,11,W,non-target,non-target,1135.0,True,2,10,27,False,0.0,0.0,0.0,4.0,0
762,P13,2-back,2,12,H,target,target,1519.0,True,2,10,27,False,1.0,1.0,0.0,4.0,0
763,P13,2-back,2,13,R,non-target,non-target,1151.0,True,2,10,27,False,1.0,1.0,0.0,4.0,0
764,P13,2-back,2,14,D,non-target,non-target,1071.0,True,2,10,27,False,0.0,1.0,0.0,4.0,0
765,P13,2-back,2,15,Z,non-target,non-target,927.0,True,2,10,27,False,0.0,1.0,0.0,4.0,0
766,P13,2-back,2,16,H,non-target,non-target,895.0,True,2,10,27,False,0.0,0.0,0.0,4.0,0
767,P13,2-back,2,17,Z,target,target,503.0,True,2,10,27,False,1.0,1.0,0.0,4.0,0
768,P13,2-back,2,18,H,target,target,847.0,True,2,10,27,False,2.0,2.0,0.0,4.0,0
769,P13,2-back,2,19,Q,non-target,non-target,471.0,True,2,10,27,False,1.0,2.0,0.0,4.0,0
770,P13,2-back,2,20,H,target,target,455.0,True,2,10,27,False,1.0,3.0,0.0,4.0,0
771,P13,2-back,2,21,V,non-target,non-target,439.0,True,2,10,27,False,1.0,2.0,0.0,4.0,0
772,P13,2-back,2,22,B,non-target,non-target,830.0,True,2,10,27,False,0.0,1.0,0.0,4.0,0
773,P13,2-back,2,23,L,non-target,non-target,806.0,True,2,10,27,False,0.0,1.0,0.0,4.0,0
774,P13,2-back,2,24,N,non-target,non-target,830.0,True,2,10,27,False,0.0,0.0,0.0,4.0,0
775,P13,2-back,2,25,L,target,target,1038.0,True,2,10,27,False,1.0,1.0,0.0,4.0,0
776,P13,2-back,2,26,T,non-target,non-target,774.0,True,2,10,27,False,1.0,1.0,0.0,4.0,0
777,P13,2-back,2,27,M,non-target,non-target,1310.0,True,2,10,27,False,0.0,1.0,0.0,4.0,0
778,P13,2-back,2,28,T,target,target,795.0,True,2,10,27,False,1.0,2.0,0.0,4.0,0
779,P13,2-back,2,29,M,target,target,654.0,True,2,10,27,False,2.0,2.0,0.0,4.0,0
780,P13,2-back,2,30,C,non-target,non-target,606.0,True,2,10,27,False,1.0,2.0,0.0,4.0,0
781,P13,2-back,3,1,F,burn-in,non-target,903.0,False,2,10,27,False,,,,,1
782,P13,2-back,3,2,J,burn-in,non-target,538.0,False,2,10,27,False,,,,,1
783,P13,2-back,3,3,S,burn-in,non-target,608.0,False,2,10,27,False,,,,,1
784,P13,2-back,3,4,K,non-target,non-target,782.0,True,2,10,27,False,0.0,0.0,0.0,1.0,1
785,P13,2-back,3,5,Y,non-target,non-target,518.0,True,2,10,27,False,0.0,0.0,0.0,2.0,1
786,P13,2-back,3,6,K,target,target,670.0,True,2,10,27,False,1.0,1.0,0.0,3.0,1
787,P13,2-back,3,7,P,non-target,non-target,496.0,True,2,10,27,False,1.0,1.0,0.0,4.0,1
788,P13,2-back,3,8,G,non-target,non-target,662.0,True,2,10,27,False,0.0,1.0,0.0,4.0,1
789,P13,2-back,3,9,P,target,target,934.0,True,2,10,27,False,1.0,2.0,0.0,4.0,1
790,P13,2-back,3,10,G,target,target,566.0,True,2,10,27,False,2.0,2.0,0.0,4.0,1
791,P13,2-back,3,11,G,non-target,non-target,638.0,True,2,10,27,True,2.0,2.0,1.0,4.0,1
792,P13,2-back,3,12,B,non-target,non-target,1462.0,True,2,10,27,False,1.0,2.0,1.0,4.0,1
793,P13,2-back,3,13,G,target,target,1058.0,True,2,10,27,False,2.0,2.0,1.0,4.0,1
794,P13,2-back,3,14,R,non-target,non-target,1014.0,True,2,10,27,False,1.0,1.0,1.0,4.0,1
795,P13,2-back,3,15,L,non-target,non-target,1270.0,True,2,10,27,False,0.0,1.0,0.0,4.0,1
796,P13,2-back,3,16,R,target,target,734.0,True,2,10,27,False,1.0,2.0,0.0,4.0,1
797,P13,2-back,3,17,N,non-target,non-target,758.0,True,2,10,27,False,1.0,1.0,0.0,4.0,1
798,P13,2-back,3,18,P,non-target,non-target,1205.0,True,2,10,27,False,0.0,1.0,0.0,4.0,1
799,P13,2-back,3,19,N,target,target,1374.0,True,2,10,27,False,1.0,2.0,0.0,4.0,1
800,P13,2-back,3,20,F,non-target,non-target,1645.0,True,2,10,27,False,1.0,1.0,0.0,4.0,1
801,P13,2-back,3,21,N,target,target,869.0,True,2,10,27,False,1.0,2.0,0.0,4.0,1
802,P13,2-back,3,22,F,target,target,2237.0,True,2,10,27,False,2.0,3.0,0.0,4.0,1
803,P13,2-back,3,23,M,non-target,non-target,2245.0,True,2,10,27,False,1.0,2.0,0.0,4.0,1
804,P13,2-back,3,24,C,non-target,non-target,1917.0,True,2,10,27,False,0.0,2.0,0.0,4.0,1
805,P13,2-back,3,25,D,non-target,non-target,1301.0,True,2,10,27,False,0.0,1.0,0.0,4.0,1
806,P13,2-back,3,26,C,target,target,589.0,True,2,10,27,False,1.0,1.0,0.0,4.0,1
807,P13,2-back,3,27,H,non-target,non-target,2149.0,True,2,10,27,False,1.0,1.0,0.0,4.0,1
808,P13,2-back,3,28,C,target,target,989.0,True,2,10,27,False,1.0,2.0,0.0,4.0,1
809,P13,2-back,3,29,K,non-target,non-target,934.0,True,2,10,27,False,1.0,2.0,0.0,4.0,1
810,P13,2-back,3,30,Y,non-target,non-target,766.0,True,2,10,27,False,0.0,1.0,0.0,4.0,1
811,P13,3-back,1,1,L,burn-in,non-target,854.0,False,3,10,27,False,,,,,0
812,P13,3-back,1,2,M,burn-in,non-target,422.0,False,3,10,27,False,,,,,0
813,P13,3-back,1,3,H,burn-in,non-target,566.0,False,3,10,27,False,,,,,0
814,P13,3-back,1,4,L,target,target,615.0,True,3,10,27,False,1.0,1.0,0.0,1.0,0
815,P13,3-back,1,5,M,target,target,679.0,True,3,10,27,False,1.0,2.0,0.0,2.0,0
816,P13,3-back,1,6,B,non-target,non-target,1311.0,True,3,10,27,False,0.0,2.0,0.0,3.0,0
817,P13,3-back,1,7,N,non-target,non-target,1047.0,True,3,10,27,False,0.0,2.0,0.0,4.0,0
818,P13,3-back,1,8,Y,non-target,non-target,1199.0,True,3,10,27,False,0.0,1.0,0.0,4.0,0
819,P13,3-back,1,9,T,non-target,non-target,887.0,True,3,10,27,False,0.0,0.0,0.0,4.0,0
820,P13,3-back,1,10,W,non-target,non-target,822.0,True,3,10,27,False,0.0,0.0,0.0,4.0,0
821,P13,3-back,1,11,R,non-target,non-target,710.0,True,3,10,27,False,0.0,0.0,0.0,4.0,0
822,P13,3-back,1,12,T,target,target,470.0,True,3,10,27,False,1.0,1.0,0.0,4.0,0
823,P13,3-back,1,13,V,non-target,non-target,1334.0,True,3,10,27,False,0.0,1.0,0.0,4.0,0
824,P13,3-back,1,14,D,non-target,non-target,758.0,True,3,10,27,False,0.0,1.0,0.0,4.0,0
825,P13,3-back,1,15,T,target,target,830.0,True,3,10,27,False,1.0,2.0,0.0,4.0,0
826,P13,3-back,1,16,V,target,target,1334.0,True,3,10,27,False,1.0,2.0,0.0,4.0,0
827,P13,3-back,1,17,K,non-target,non-target,534.0,True,3,10,27,False,0.0,2.0,0.0,4.0,0
828,P13,3-back,1,18,T,target,target,774.0,True,3,10,27,False,1.0,3.0,0.0,4.0,0
829,P13,3-back,1,19,Q,non-target,non-target,1222.0,True,3,10,27,False,0.0,2.0,0.0,4.0,0
830,P13,3-back,1,20,K,target,target,846.0,True,3,10,27,False,1.0,2.0,0.0,4.0,0
831,P13,3-back,1,21,Z,non-target,non-target,806.0,True,3,10,27,False,0.0,2.0,0.0,4.0,0
832,P13,3-back,1,22,Q,target,target,390.0,True,3,10,27,False,1.0,2.0,0.0,4.0,0
833,P13,3-back,1,23,K,target,target,550.0,True,3,10,27,False,1.0,3.0,0.0,4.0,0
834,P13,3-back,1,24,C,non-target,non-target,445.0,True,3,10,27,False,0.0,2.0,0.0,4.0,0
835,P13,3-back,1,25,G,non-target,non-target,1069.0,True,3,10,27,False,0.0,2.0,0.0,4.0,0
836,P13,3-back,1,26,S,non-target,non-target,653.0,True,3,10,27,False,0.0,1.0,0.0,4.0,0
837,P13,3-back,1,27,C,target,target,445.0,True,3,10,27,False,1.0,1.0,0.0,4.0,0
838,P13,3-back,1,28,D,non-target,non-target,1061.0,True,3,10,27,False,0.0,1.0,0.0,4.0,0
839,P13,3-back,1,29,Q,non-target,non-target,837.0,True,3,10,27,False,0.0,1.0,0.0,4.0,0
840,P13,3-back,1,30,Y,non-target,non-target,645.0,True,3,10,27,False,0.0,1.0,0.0,4.0,0
841,P13,3-back,2,1,L,burn-in,non-target,867.0,False,3,10,27,False,,,,,0
842,P13,3-back,2,2,Z,burn-in,non-target,747.0,False,3,10,27,False,,,,,0
843,P13,3-back,2,3,T,burn-in,non-target,387.0,False,3,10,27,False,,,,,0
844,P13,3-back,2,4,N,non-target,non-target,555.0,True,3,10,27,False,0.0,0.0,0.0,1.0,0
845,P13,3-back,2,5,K,non-target,non-target,650.0,True,3,10,27,False,0.0,0.0,0.0,2.0,0
846,P13,3-back,2,6,F,non-target,non-target,1026.0,True,3,10,27,False,0.0,0.0,0.0,3.0,0
847,P13,3-back,2,7,N,target,target,538.0,True,3,10,27,False,1.0,1.0,0.0,4.0,0
848,P13,3-back,2,8,P,non-target,non-target,794.0,True,3,10,27,False,0.0,1.0,0.0,4.0,0
849,P13,3-back,2,9,M,non-target,non-target,554.0,True,3,10,27,False,0.0,1.0,0.0,4.0,0
850,P13,3-back,2,10,V,non-target,non-target,2572.0,True,3,10,27,False,0.0,1.0,0.0,4.0,0
851,P13,3-back,2,11,P,target,target,966.0,True,3,10,27,False,1.0,1.0,0.0,4.0,0
852,P13,3-back,2,12,B,non-target,non-target,898.0,True,3,10,27,False,0.0,1.0,0.0,4.0,0
853,P13,3-back,2,13,V,target,target,458.0,True,3,10,27,False,1.0,2.0,0.0,4.0,0
854,P13,3-back,2,14,W,non-target,non-target,522.0,True,3,10,27,False,0.0,2.0,0.0,4.0,0
855,P13,3-back,2,15,R,non-target,non-target,1882.0,True,3,10,27,False,0.0,1.0,0.0,4.0,0
856,P13,3-back,2,16,V,target,target,626.0,True,3,10,27,False,1.0,2.0,0.0,4.0,0
857,P13,3-back,2,17,H,non-target,non-target,666.0,True,3,10,27,False,0.0,1.0,0.0,4.0,0
858,P13,3-back,2,18,J,non-target,non-target,1034.0,True,3,10,27,False,0.0,1.0,0.0,4.0,0
859,P13,3-back,2,19,V,target,target,466.0,True,3,10,27,False,1.0,2.0,0.0,4.0,0
860,P13,3-back,2,20,H,target,target,633.0,True,3,10,27,False,1.0,2.0,0.0,4.0,0
861,P13,3-back,2,21,J,target,target,465.0,True,3,10,27,False,1.0,3.0,0.0,4.0,0
862,P13,3-back,2,22,V,target,target,538.0,True,3,10,27,False,1.0,4.0,0.0,4.0,0
863,P13,3-back,2,23,D,non-target,non-target,578.0,True,3,10,27,False,0.0,3.0,0.0,4.0,0
864,P13,3-back,2,24,S,non-target,non-target,570.0,True,3,10,27,False,0.0,2.0,0.0,4.0,0
865,P13,3-back,2,25,F,non-target,non-target,1330.0,True,3,10,27,False,0.0,1.0,0.0,4.0,0
866,P13,3-back,2,26,C,non-target,non-target,890.0,True,3,10,27,False,0.0,0.0,0.0,4.0,0
867,P13,3-back,2,27,M,non-target,non-target,712.0,True,3,10,27,False,0.0,0.0,0.0,4.0,0
868,P13,3-back,2,28,P,non-target,non-target,626.0,True,3,10,27,False,0.0,0.0,0.0,4.0,0
869,P13,3-back,2,29,C,target,target,482.0,True,3,10,27,False,1.0,1.0,0.0,4.0,0
870,P13,3-back,2,30,M,target,target,458.0,True,3,10,27,False,1.0,2.0,0.0,4.0,0
871,P13,3-back,3,1,J,burn-in,non-target,1141.0,False,3,10,26,False,,,,,0
872,P13,3-back,3,2,N,burn-in,non-target,532.0,False,3,10,26,False,,,,,0
873,P13,3-back,3,3,G,burn-in,non-target,396.0,False,3,10,26,False,,,,,0
874,P13,3-back,3,4,K,non-target,non-target,996.0,True,3,10,26,False,0.0,0.0,0.0,1.0,0
875,P13,3-back,3,5,Y,non-target,non-target,564.0,True,3,10,26,False,0.0,0.0,0.0,2.0,0
876,P13,3-back,3,6,Z,non-target,non-target,628.0,True,3,10,26,False,0.0,0.0,0.0,3.0,0
877,P13,3-back,3,7,W,non-target,non-target,868.0,True,3,10,26,False,0.0,0.0,0.0,4.0,0
878,P13,3-back,3,8,Y,target,target,452.0,True,3,10,26,False,1.0,1.0,0.0,4.0,0
879,P13,3-back,3,9,Z,target,target,452.0,True,3,10,26,False,1.0,2.0,0.0,4.0,0
880,P13,3-back,3,10,W,target,non-target,1116.0,False,3,10,26,False,1.0,3.0,0.0,3.0,0
881,P13,3-back,3,11,B,non-target,non-target,700.0,True,3,10,26,False,0.0,3.0,0.0,3.0,0
882,P13,3-back,3,12,Z,target,target,1420.0,True,3,10,26,False,1.0,3.0,0.0,3.0,0
883,P13,3-back,3,13,Q,non-target,non-target,998.0,True,3,10,26,False,0.0,2.0,0.0,3.0,0
884,P13,3-back,3,14,L,non-target,non-target,660.0,True,3,10,26,False,0.0,1.0,0.0,4.0,0
885,P13,3-back,3,15,Z,target,target,1028.0,True,3,10,26,False,1.0,2.0,0.0,4.0,0
886,P13,3-back,3,16,H,non-target,non-target,1611.0,True,3,10,26,False,0.0,1.0,0.0,4.0,0
887,P13,3-back,3,17,V,non-target,non-target,779.0,True,3,10,26,False,0.0,1.0,0.0,4.0,0
888,P13,3-back,3,18,Z,target,target,531.0,True,3,10,26,False,1.0,2.0,0.0,4.0,0
889,P13,3-back,3,19,R,non-target,non-target,1563.0,True,3,10,26,False,0.0,1.0,0.0,4.0,0
890,P13,3-back,3,20,T,non-target,non-target,827.0,True,3,10,26,False,0.0,1.0,0.0,4.0,0
891,P13,3-back,3,21,F,non-target,non-target,1475.0,True,3,10,26,False,0.0,1.0,0.0,4.0,0
892,P13,3-back,3,22,Y,non-target,non-target,1243.0,True,3,10,26,False,0.0,0.0,0.0,4.0,0
893,P13,3-back,3,23,S,non-target,non-target,1427.0,True,3,10,26,False,0.0,0.0,0.0,4.0,0
894,P13,3-back,3,24,F,target,target,595.0,True,3,10,26,False,1.0,1.0,0.0,4.0,0
895,P13,3-back,3,25,Y,target,target,1235.0,True,3,10,26,False,1.0,2.0,0.0,4.0,0
896,P13,3-back,3,26,G,non-target,non-target,691.0,True,3,10,26,False,0.0,2.0,0.0,4.0,0
897,P13,3-back,3,27,T,non-target,non-target,859.0,True,3,10,26,False,0.0,2.0,0.0,4.0,0
898,P13,3-back,3,28,L,non-target,non-target,1387.0,True,3,10,26,False,0.0,1.0,0.0,4.0,0
899,P13,3-back,3,29,G,target,target,763.0,True,3,10,26,False,1.0,1.0,0.0,4.0,0
900,P13,3-back,3,30,T,target,target,611.0,True,3,10,26,False,1.0,2.0,0.0,4.0,0
901,P14,2-back,1,1,M,burn-in,,,False,2,10,25,False,,,,,0
902,P14,2-back,1,2,K,burn-in,,,False,2,10,25,False,,,,,0
903,P14,2-back,1,3,D,burn-in,non-target,840.0,False,2,10,25,False,,,,,0
904,P14,2-back,1,4,K,target,target,832.0,True,2,10,25,False,1.0,1.0,0.0,1.0,0
905,P14,2-back,1,5,D,target,target,1608.0,True,2,10,25,False,2.0,2.0,0.0,2.0,0
906,P14,2-back,1,6,K,target,target,1880.0,True,2,10,25,False,2.0,3.0,0.0,3.0,0
907,P14,2-back,1,7,Y,non-target,non-target,960.0,True,2,10,25,False,1.0,3.0,0.0,4.0,0
908,P14,2-back,1,8,K,target,target,1736.0,True,2,10,25,False,1.0,3.0,0.0,4.0,0
909,P14,2-back,1,9,Y,target,target,1344.0,True,2,10,25,False,2.0,3.0,0.0,4.0,0
910,P14,2-back,1,10,K,target,target,1360.0,True,2,10,25,False,2.0,3.0,0.0,4.0,0
911,P14,2-back,1,11,J,non-target,non-target,1120.0,True,2,10,25,False,1.0,3.0,0.0,4.0,0
912,P14,2-back,1,12,V,non-target,non-target,1624.0,True,2,10,25,False,0.0,2.0,0.0,4.0,0
913,P14,2-back,1,13,J,target,target,768.0,True,2,10,25,False,1.0,2.0,0.0,4.0,0
914,P14,2-back,1,14,Q,non-target,non-target,1264.0,True,2,10,25,False,1.0,1.0,0.0,4.0,0
915,P14,2-back,1,15,G,non-target,non-target,1024.0,True,2,10,25,False,0.0,1.0,0.0,4.0,0
916,P14,2-back,1,16,N,non-target,non-target,1591.0,True,2,10,25,False,0.0,1.0,0.0,4.0,0
917,P14,2-back,1,17,P,non-target,non-target,1343.0,True,2,10,25,False,0.0,0.0,0.0,4.0,0
918,P14,2-back,1,18,N,target,target,687.0,True,2,10,25,False,1.0,1.0,0.0,4.0,0
919,P14,2-back,1,19,P,target,target,1871.0,True,2,10,25,False,2.0,2.0,0.0,4.0,0
920,P14,2-back,1,20,J,non-target,,,False,2,10,25,False,1.0,2.0,0.0,3.0,0
921,P14,2-back,1,21,F,non-target,,,False,2,10,25,False,0.0,2.0,0.0,2.0,0
922,P14,2-back,1,22,J,target,target,679.0,True,2,10,25,False,1.0,2.0,0.0,2.0,0
923,P14,2-back,1,23,H,non-target,non-target,711.0,True,2,10,25,False,1.0,1.0,0.0,2.0,0
924,P14,2-back,1,24,S,non-target,non-target,959.0,True,2,10,25,False,0.0,1.0,0.0,3.0,0
925,P14,2-back,1,25,D,non-target,non-target,727.0,True,2,10,25,False,0.0,1.0,0.0,4.0,0
926,P14,2-back,1,26,B,non-target,non-target,831.0,True,2,10,25,False,0.0,0.0,0.0,4.0,0
927,P14,2-back,1,27,T,non-target,non-target,751.0,True,2,10,25,False,0.0,0.0,0.0,4.0,0
928,P14,2-back,1,28,C,non-target,non-target,615.0,True,2,10,25,False,0.0,0.0,0.0,4.0,0
929,P14,2-back,1,29,V,non-target,non-target,711.0,True,2,10,25,False,0.0,0.0,0.0,4.0,0
930,P14,2-back,1,30,R,non-target,non-target,686.0,True,2,10,25,False,0.0,0.0,0.0,4.0,0
931,P14,2-back,2,1,W,burn-in,,,False,2,10,27,False,,,,,0
932,P14,2-back,2,2,Q,burn-in,,,False,2,10,27,False,,,,,0
933,P14,2-back,2,3,Y,burn-in,non-target,735.0,False,2,10,27,False,,,,,0
934,P14,2-back,2,4,K,non-target,non-target,879.0,True,2,10,27,False,0.0,0.0,0.0,1.0,0
935,P14,2-back,2,5,L,non-target,non-target,1879.0,True,2,10,27,False,0.0,0.0,0.0,2.0,0
936,P14,2-back,2,6,Z,non-target,non-target,663.0,True,2,10,27,False,0.0,0.0,0.0,3.0,0
937,P14,2-back,2,7,L,target,target,1071.0,True,2,10,27,False,1.0,1.0,0.0,4.0,0
938,P14,2-back,2,8,Z,target,target,1015.0,True,2,10,27,False,2.0,2.0,0.0,4.0,0
939,P14,2-back,2,9,L,target,target,807.0,True,2,10,27,False,2.0,3.0,0.0,4.0,0
940,P14,2-back,2,10,M,non-target,non-target,558.0,True,2,10,27,False,1.0,3.0,0.0,4.0,0
941,P14,2-back,2,11,N,non-target,non-target,726.0,True,2,10,27,False,0.0,2.0,0.0,4.0,0
942,P14,2-back,2,12,R,non-target,non-target,1006.0,True,2,10,27,False,0.0,1.0,0.0,4.0,0
943,P14,2-back,2,13,N,target,target,542.0,True,2,10,27,False,1.0,1.0,0.0,4.0,0
944,P14,2-back,2,14,H,non-target,non-target,646.0,True,2,10,27,False,1.0,1.0,0.0,4.0,0
945,P14,2-back,2,15,Q,non-target,non-target,942.0,True,2,10,27,False,0.0,1.0,0.0,4.0,0
946,P14,2-back,2,16,H,target,target,542.0,True,2,10,27,False,1.0,2.0,0.0,4.0,0
947,P14,2-back,2,17,W,non-target,non-target,590.0,True,2,10,27,False,1.0,1.0,0.0,4.0,0
948,P14,2-back,2,18,K,non-target,non-target,1350.0,True,2,10,27,False,0.0,1.0,0.0,4.0,0
949,P14,2-back,2,19,D,non-target,non-target,894.0,True,2,10,27,False,0.0,1.0,0.0,4.0,0
950,P14,2-back,2,20,K,target,target,1174.0,True,2,10,27,False,1.0,1.0,0.0,4.0,0
951,P14,2-back,2,21,D,target,target,1614.0,True,2,10,27,False,2.0,2.0,0.0,4.0,0
952,P14,2-back,2,22,G,non-target,non-target,814.0,True,2,10,27,False,1.0,2.0,0.0,4.0,0
953,P14,2-back,2,23,D,target,target,686.0,True,2,10,27,False,1.0,3.0,0.0,4.0,0
954,P14,2-back,2,24,G,target,target,757.0,True,2,10,27,False,2.0,3.0,0.0,4.0,0
955,P14,2-back,2,25,L,non-target,non-target,725.0,True,2,10,27,False,1.0,2.0,0.0,4.0,0
956,P14,2-back,2,26,V,non-target,non-target,717.0,True,2,10,27,False,0.0,2.0,0.0,4.0,0
957,P14,2-back,2,27,F,non-target,non-target,781.0,True,2,10,27,False,0.0,1.0,0.0,4.0,0
958,P14,2-back,2,28,V,target,target,614.0,True,2,10,27,False,1.0,1.0,0.0,4.0,0
959,P14,2-back,2,29,Y,non-target,non-target,926.0,True,2,10,27,False,1.0,1.0,0.0,4.0,0
960,P14,2-back,2,30,C,non-target,non-target,766.0,True,2,10,27,False,0.0,1.0,0.0,4.0,0
961,P14,2-back,3,1,S,burn-in,,,False,2,10,26,False,,,,,0
962,P14,2-back,3,2,M,burn-in,,,False,2,10,26,False,,,,,0
963,P14,2-back,3,3,T,burn-in,non-target,622.0,False,2,10,26,False,,,,,0
964,P14,2-back,3,4,Z,non-target,non-target,694.0,True,2,10,26,False,0.0,0.0,0.0,1.0,0
965,P14,2-back,3,5,B,non-target,non-target,773.0,True,2,10,26,False,0.0,0.0,0.0,2.0,0
966,P14,2-back,3,6,Z,target,target,725.0,True,2,10,26,False,1.0,1.0,0.0,3.0,0
967,P14,2-back,3,7,J,non-target,non-target,613.0,True,2,10,26,False,1.0,1.0,0.0,4.0,0
968,P14,2-back,3,8,Z,target,target,653.0,True,2,10,26,False,1.0,2.0,0.0,4.0,0
969,P14,2-back,3,9,P,non-target,non-target,589.0,True,2,10,26,False,1.0,2.0,0.0,4.0,0
970,P14,2-back,3,10,W,non-target,non-target,3141.0,True,2,10,26,False,0.0,1.0,0.0,4.0,0
971,P14,2-back,3,11,K,non-target,non-target,1157.0,True,2,10,26,False,0.0,1.0,0.0,4.0,0
972,P14,2-back,3,12,B,non-target,non-target,701.0,True,2,10,26,False,0.0,0.0,0.0,4.0,0
973,P14,2-back,3,13,D,non-target,non-target,797.0,True,2,10,26,False,0.0,0.0,0.0,4.0,0
974,P14,2-back,3,14,L,non-target,non-target,653.0,True,2,10,26,False,0.0,0.0,0.0,4.0,0
975,P14,2-back,3,15,S,non-target,non-target,541.0,True,2,10,26,False,0.0,0.0,0.0,4.0,0
976,P14,2-back,3,16,V,non-target,non-target,661.0,True,2,10,26,False,0.0,0.0,0.0,4.0,0
977,P14,2-back,3,17,T,non-target,non-target,741.0,True,2,10,26,False,0.0,0.0,0.0,4.0,0
978,P14,2-back,3,18,V,target,target,364.0,True,2,10,26,False,1.0,1.0,0.0,4.0,0
979,P14,2-back,3,19,H,non-target,non-target,540.0,True,2,10,26,False,1.0,1.0,0.0,4.0,0
980,P14,2-back,3,20,G,non-target,non-target,644.0,True,2,10,26,False,0.0,1.0,0.0,4.0,0
981,P14,2-back,3,21,Y,non-target,non-target,836.0,True,2,10,26,False,0.0,1.0,0.0,4.0,0
982,P14,2-back,3,22,G,target,target,700.0,True,2,10,26,False,1.0,1.0,0.0,4.0,0
983,P14,2-back,3,23,Y,target,target,748.0,True,2,10,26,False,2.0,2.0,0.0,4.0,0
984,P14,2-back,3,24,J,non-target,non-target,869.0,True,2,10,26,False,1.0,2.0,0.0,4.0,0
985,P14,2-back,3,25,Y,target,target,837.0,True,2,10,26,False,1.0,3.0,0.0,4.0,0
986,P14,2-back,3,26,J,target,target,605.0,True,2,10,26,False,2.0,3.0,0.0,4.0,0
987,P14,2-back,3,27,Y,target,target,749.0,True,2,10,26,False,2.0,3.0,0.0,4.0,0
988,P14,2-back,3,28,J,target,target,469.0,True,2,10,26,False,2.0,4.0,0.0,4.0,0
989,P14,2-back,3,29,N,non-target,non-target,549.0,True,2,10,26,False,1.0,3.0,0.0,4.0,0
990,P14,2-back,3,30,J,target,non-target,461.0,False,2,10,26,False,1.0,3.0,0.0,3.0,0
991,P14,3-back,1,1,Z,burn-in,,,False,3,10,25,False,,,,,0
992,P14,3-back,1,2,H,burn-in,,,False,3,10,25,False,,,,,0
993,P14,3-back,1,3,P,burn-in,,,False,3,10,25,False,,,,,0
994,P14,3-back,1,4,D,non-target,non-target,1040.0,True,3,10,25,False,0.0,0.0,0.0,1.0,0
995,P14,3-back,1,5,R,non-target,non-target,1743.0,True,3,10,25,False,0.0,0.0,0.0,2.0,0
996,P14,3-back,1,6,W,non-target,non-target,1552.0,True,3,10,25,False,0.0,0.0,0.0,3.0,0
997,P14,3-back,1,7,V,non-target,target,2536.0,False,3,10,25,False,0.0,0.0,0.0,3.0,0
998,P14,3-back,1,8,S,non-target,non-target,1848.0,True,3,10,25,False,0.0,0.0,0.0,3.0,0
999,P14,3-back,1,9,W,target,target,1280.0,True,3,10,25,False,1.0,1.0,0.0,3.0,0
1000,P14,3-back,1,10,B,non-target,non-target,896.0,True,3,10,25,False,0.0,1.0,0.0,3.0,0
1001,P14,3-back,1,11,S,target,target,1040.0,True,3,10,25,False,1.0,2.0,0.0,4.0,0
1002,P14,3-back,1,12,L,non-target,non-target,1192.0,True,3,10,25,False,0.0,2.0,0.0,4.0,0
1003,P14,3-back,1,13,N,non-target,target,888.0,False,3,10,25,False,0.0,1.0,0.0,3.0,0
1004,P14,3-back,1,14,F,non-target,non-target,1456.0,True,3,10,25,False,0.0,1.0,0.0,3.0,0
1005,P14,3-back,1,15,Q,non-target,non-target,1248.0,True,3,10,25,False,0.0,0.0,0.0,3.0,0
1006,P14,3-back,1,16,C,non-target,non-target,1384.0,True,3,10,25,False,0.0,0.0,0.0,3.0,0
1007,P14,3-back,1,17,F,target,target,1328.0,True,3,10,25,False,1.0,1.0,0.0,4.0,0
1008,P14,3-back,1,18,M,non-target,non-target,1047.0,True,3,10,25,False,0.0,1.0,0.0,4.0,0
1009,P14,3-back,1,19,C,target,target,1343.0,True,3,10,25,False,1.0,2.0,0.0,4.0,0
1010,P14,3-back,1,20,F,target,target,1175.0,True,3,10,25,False,1.0,3.0,0.0,4.0,0
1011,P14,3-back,1,21,M,target,target,807.0,True,3,10,25,False,1.0,3.0,0.0,4.0,0
1012,P14,3-back,1,22,C,target,target,1239.0,True,3,10,25,False,1.0,4.0,0.0,4.0,0
1013,P14,3-back,1,23,R,non-target,non-target,1015.0,True,3,10,25,False,0.0,3.0,0.0,4.0,0
1014,P14,3-back,1,24,M,target,target,815.0,True,3,10,25,False,1.0,3.0,0.0,4.0,0
1015,P14,3-back,1,25,C,target,target,1165.0,True,3,10,25,False,1.0,3.0,0.0,4.0,0
1016,P14,3-back,1,26,Y,non-target,non-target,1159.0,True,3,10,25,False,0.0,2.0,0.0,4.0,0
1017,P14,3-back,1,27,S,non-target,non-target,1503.0,True,3,10,25,False,0.0,2.0,0.0,4.0,0
1018,P14,3-back,1,28,P,non-target,non-target,1191.0,True,3,10,25,False,0.0,1.0,0.0,4.0,0
1019,P14,3-back,1,29,F,non-target,non-target,1671.0,True,3,10,25,False,0.0,0.0,0.0,4.0,0
1020,P14,3-back,1,30,S,target,target,1335.0,True,3,10,25,False,1.0,1.0,0.0,4.0,0
1021,P14,3-back,2,1,D,burn-in,,,False,3,10,26,False,,,,,0
1022,P14,3-back,2,2,K,burn-in,,,False,3,10,26,False,,,,,0
1023,P14,3-back,2,3,G,burn-in,,,False,3,10,26,False,,,,,0
1024,P14,3-back,2,4,D,target,target,1511.0,True,3,10,26,False,1.0,1.0,0.0,1.0,0
1025,P14,3-back,2,5,H,non-target,non-target,1367.0,True,3,10,26,False,0.0,1.0,0.0,2.0,0
1026,P14,3-back,2,6,G,target,target,1983.0,True,3,10,26,False,1.0,2.0,0.0,3.0,0
1027,P14,3-back,2,7,N,non-target,non-target,1479.0,True,3,10,26,False,0.0,2.0,0.0,4.0,0
1028,P14,3-back,2,8,L,non-target,non-target,1967.0,True,3,10,26,False,0.0,1.0,0.0,4.0,0
1029,P14,3-back,2,9,G,target,target,1015.0,True,3,10,26,False,1.0,2.0,0.0,4.0,0
1030,P14,3-back,2,10,N,target,target,1183.0,True,3,10,26,False,1.0,2.0,0.0,4.0,0
1031,P14,3-back,2,11,Z,non-target,non-target,822.0,True,3,10,26,False,0.0,2.0,0.0,4.0,0
1032,P14,3-back,2,12,W,non-target,non-target,862.0,True,3,10,26,False,0.0,2.0,0.0,4.0,0
1033,P14,3-back,2,13,T,non-target,non-target,1014.0,True,3,10,26,False,0.0,1.0,0.0,4.0,0
1034,P14,3-back,2,14,Z,target,target,1014.0,True,3,10,26,False,1.0,1.0,0.0,4.0,0
1035,P14,3-back,2,15,V,non-target,non-target,966.0,True,3,10,26,False,0.0,1.0,0.0,4.0,0
1036,P14,3-back,2,16,C,non-target,non-target,838.0,True,3,10,26,False,0.0,1.0,0.0,4.0,0
1037,P14,3-back,2,17,Z,target,target,1510.0,True,3,10,26,False,1.0,2.0,0.0,4.0,0
1038,P14,3-back,2,18,B,non-target,non-target,1054.0,True,3,10,26,False,0.0,1.0,0.0,4.0,0
1039,P14,3-back,2,19,C,target,non-target,1462.0,False,3,10,26,False,1.0,2.0,0.0,3.0,0
1040,P14,3-back,2,20,Q,non-target,non-target,1126.0,True,3,10,26,False,0.0,2.0,0.0,3.0,0
1041,P14,3-back,2,21,B,target,target,846.0,True,3,10,26,False,1.0,2.0,0.0,3.0,0
1042,P14,3-back,2,22,J,non-target,non-target,790.0,True,3,10,26,False,0.0,2.0,0.0,3.0,0
1043,P14,3-back,2,23,Q,target,target,1046.0,True,3,10,26,False,1.0,2.0,0.0,4.0,0
1044,P14,3-back,2,24,F,non-target,non-target,1830.0,True,3,10,26,False,0.0,2.0,0.0,4.0,0
1045,P14,3-back,2,25,H,non-target,non-target,877.0,True,3,10,26,False,0.0,1.0,0.0,4.0,0
1046,P14,3-back,2,26,V,non-target,non-target,1517.0,True,3,10,26,False,0.0,1.0,0.0,4.0,0
1047,P14,3-back,2,27,D,non-target,non-target,2213.0,True,3,10,26,False,0.0,0.0,0.0,4.0,0
1048,P14,3-back,2,28,H,target,target,765.0,True,3,10,26,False,1.0,1.0,0.0,4.0,0
1049,P14,3-back,2,29,S,non-target,non-target,734.0,True,3,10,26,False,0.0,1.0,0.0,4.0,0
1050,P14,3-back,2,30,K,non-target,non-target,966.0,True,3,10,26,False,0.0,1.0,0.0,4.0,0
1051,P14,3-back,3,1,T,burn-in,,,False,3,10,27,False,,,,,0
1052,P14,3-back,3,2,W,burn-in,,,False,3,10,27,False,,,,,0
1053,P14,3-back,3,3,J,burn-in,,,False,3,10,27,False,,,,,0
1054,P14,3-back,3,4,T,target,target,838.0,True,3,10,27,False,1.0,1.0,0.0,1.0,0
1055,P14,3-back,3,5,B,non-target,non-target,798.0,True,3,10,27,False,0.0,1.0,0.0,2.0,0
1056,P14,3-back,3,6,M,non-target,non-target,1533.0,True,3,10,27,False,0.0,1.0,0.0,3.0,0
1057,P14,3-back,3,7,Q,non-target,non-target,1413.0,True,3,10,27,False,0.0,1.0,0.0,4.0,0
1058,P14,3-back,3,8,C,non-target,non-target,909.0,True,3,10,27,False,0.0,0.0,0.0,4.0,0
1059,P14,3-back,3,9,N,non-target,non-target,949.0,True,3,10,27,False,0.0,0.0,0.0,4.0,0
1060,P14,3-back,3,10,Z,non-target,non-target,1477.0,True,3,10,27,False,0.0,0.0,0.0,4.0,0
1061,P14,3-back,3,11,C,target,target,669.0,True,3,10,27,False,1.0,1.0,0.0,4.0,0
1062,P14,3-back,3,12,N,target,target,1325.0,True,3,10,27,False,1.0,2.0,0.0,4.0,0
1063,P14,3-back,3,13,Z,target,target,1117.0,True,3,10,27,False,1.0,3.0,0.0,4.0,0
1064,P14,3-back,3,14,C,target,target,1340.0,True,3,10,27,False,1.0,4.0,0.0,4.0,0
1065,P14,3-back,3,15,P,non-target,non-target,861.0,True,3,10,27,False,0.0,3.0,0.0,4.0,0
1066,P14,3-back,3,16,R,non-target,non-target,869.0,True,3,10,27,False,0.0,2.0,0.0,4.0,0
1067,P14,3-back,3,17,L,non-target,non-target,1429.0,True,3,10,27,False,0.0,1.0,0.0,4.0,0
1068,P14,3-back,3,18,P,target,target,1135.0,True,3,10,27,False,1.0,1.0,0.0,4.0,0
1069,P14,3-back,3,19,Y,non-target,non-target,717.0,True,3,10,27,False,0.0,1.0,0.0,4.0,0
1070,P14,3-back,3,20,G,non-target,non-target,1061.0,True,3,10,27,False,0.0,1.0,0.0,4.0,0
1071,P14,3-back,3,21,R,non-target,non-target,876.0,True,3,10,27,False,0.0,1.0,0.0,4.0,0
1072,P14,3-back,3,22,Q,non-target,non-target,700.0,True,3,10,27,False,0.0,0.0,0.0,4.0,0
1073,P14,3-back,3,23,C,non-target,non-target,1020.0,True,3,10,27,False,0.0,0.0,0.0,4.0,0
1074,P14,3-back,3,24,R,target,target,886.0,True,3,10,27,False,1.0,1.0,0.0,4.0,0
1075,P14,3-back,3,25,G,non-target,non-target,1764.0,True,3,10,27,False,0.0,1.0,0.0,4.0,0
1076,P14,3-back,3,26,M,non-target,non-target,1156.0,True,3,10,27,False,0.0,1.0,0.0,4.0,0
1077,P14,3-back,3,27,R,target,target,853.0,True,3,10,27,False,1.0,2.0,0.0,4.0,0
1078,P14,3-back,3,28,S,non-target,non-target,781.0,True,3,10,27,False,0.0,1.0,0.0,4.0,0
1079,P14,3-back,3,29,M,target,target,533.0,True,3,10,27,False,1.0,2.0,0.0,4.0,0
1080,P14,3-back,3,30,R,target,target,1069.0,True,3,10,27,False,1.0,3.0,0.0,4.0,0
1081,P15,2-back,1,1,B,burn-in,non-target,433.0,False,2,10,27,False,,,,,1
1082,P15,2-back,1,2,F,burn-in,non-target,408.0,False,2,10,27,False,,,,,1
1083,P15,2-back,1,3,M,burn-in,non-target,504.0,False,2,10,27,False,,,,,1
1084,P15,2-back,1,4,L,non-target,non-target,624.0,True,2,10,27,False,0.0,0.0,0.0,1.0,1
1085,P15,2-back,1,5,J,non-target,non-target,961.0,True,2,10,27,False,0.0,0.0,0.0,2.0,1
1086,P15,2-back,1,6,L,target,target,353.0,True,2,10,27,False,1.0,1.0,0.0,3.0,1
1087,P15,2-back,1,7,J,target,target,305.0,True,2,10,27,False,2.0,2.0,0.0,4.0,1
1088,P15,2-back,1,8,S,non-target,non-target,553.0,True,2,10,27,False,1.0,2.0,0.0,4.0,1
1089,P15,2-back,1,9,J,target,target,513.0,True,2,10,27,False,1.0,3.0,0.0,4.0,1
1090,P15,2-back,1,10,Z,non-target,non-target,457.0,True,2,10,27,False,1.0,2.0,0.0,4.0,1
1091,P15,2-back,1,11,J,target,target,385.0,True,2,10,27,False,1.0,2.0,0.0,4.0,1
1092,P15,2-back,1,12,G,non-target,non-target,417.0,True,2,10,27,False,1.0,2.0,0.0,4.0,1
1093,P15,2-back,1,13,J,target,target,537.0,True,2,10,27,False,1.0,2.0,0.0,4.0,1
1094,P15,2-back,1,14,G,target,target,513.0,True,2,10,27,False,2.0,3.0,0.0,4.0,1
1095,P15,2-back,1,15,J,target,target,521.0,True,2,10,27,False,2.0,3.0,0.0,4.0,1
1096,P15,2-back,1,16,J,non-target,non-target,737.0,True,2,10,27,True,2.0,3.0,1.0,4.0,1
1097,P15,2-back,1,17,Z,non-target,non-target,561.0,True,2,10,27,False,1.0,2.0,1.0,4.0,1
1098,P15,2-back,1,18,N,non-target,non-target,944.0,True,2,10,27,False,1.0,1.0,1.0,4.0,1
1099,P15,2-back,1,19,D,non-target,non-target,552.0,True,2,10,27,False,0.0,0.0,1.0,4.0,1
1100,P15,2-back,1,20,Y,non-target,non-target,536.0,True,2,10,27,False,0.0,0.0,0.0,4.0,1
1101,P15,2-back,1,21,R,non-target,non-target,560.0,True,2,10,27,False,0.0,0.0,0.0,4.0,1
1102,P15,2-back,1,22,L,non-target,non-target,440.0,True,2,10,27,False,0.0,0.0,0.0,4.0,1
1103,P15,2-back,1,23,R,target,target,552.0,True,2,10,27,False,1.0,1.0,0.0,4.0,1
1104,P15,2-back,1,24,L,target,target,472.0,True,2,10,27,False,2.0,2.0,0.0,4.0,1
1105,P15,2-back,1,25,B,non-target,non-target,456.0,True,2,10,27,False,1.0,2.0,0.0,4.0,1
1106,P15,2-back,1,26,K,non-target,non-target,416.0,True,2,10,27,False,0.0,2.0,0.0,4.0,1
1107,P15,2-back,1,27,Q,non-target,non-target,360.0,True,2,10,27,False,0.0,1.0,0.0,4.0,1
1108,P15,2-back,1,28,C,non-target,non-target,408.0,True,2,10,27,False,0.0,0.0,0.0,4.0,1
1109,P15,2-back,1,29,M,non-target,non-target,440.0,True,2,10,27,False,0.0,0.0,0.0,4.0,1
1110,P15,2-back,1,30,C,target,target,296.0,True,2,10,27,False,1.0,1.0,0.0,4.0,1
1111,P15,2-back,2,1,W,burn-in,non-target,516.0,False,2,10,26,False,,,,,0
1112,P15,2-back,2,2,H,burn-in,non-target,380.0,False,2,10,26,False,,,,,0
1113,P15,2-back,2,3,P,burn-in,non-target,428.0,False,2,10,26,False,,,,,0
1114,P15,2-back,2,4,F,non-target,non-target,452.0,True,2,10,26,False,0.0,0.0,0.0,1.0,0
1115,P15,2-back,2,5,P,target,target,620.0,True,2,10,26,False,1.0,1.0,0.0,2.0,0
1116,P15,2-back,2,6,V,non-target,non-target,404.0,True,2,10,26,False,1.0,1.0,0.0,3.0,0
1117,P15,2-back,2,7,P,target,target,324.0,True,2,10,26,False,1.0,2.0,0.0,4.0,0
1118,P15,2-back,2,8,V,target,target,548.0,True,2,10,26,False,2.0,3.0,0.0,4.0,0
1119,P15,2-back,2,9,T,non-target,non-target,468.0,True,2,10,26,False,1.0,2.0,0.0,4.0,0
1120,P15,2-back,2,10,S,non-target,non-target,436.0,True,2,10,26,False,0.0,2.0,0.0,4.0,0
1121,P15,2-back,2,11,H,non-target,non-target,388.0,True,2,10,26,False,0.0,1.0,0.0,4.0,0
1122,P15,2-back,2,12,S,non-target,target,404.0,False,2,10,26,False,1.0,0.0,0.0,3.0,0
1123,P15,2-back,2,13,H,target,target,340.0,True,2,10,26,False,2.0,1.0,0.0,3.0,0
1124,P15,2-back,2,14,D,non-target,non-target,404.0,True,2,10,26,False,1.0,1.0,0.0,3.0,0
1125,P15,2-back,2,15,G,non-target,non-target,428.0,True,2,10,26,False,0.0,1.0,0.0,3.0,0
1126,P15,2-back,2,16,P,non-target,non-target,388.0,True,2,10,26,False,0.0,1.0,0.0,4.0,0
1127,P15,2-back,2,17,Q,non-target,non-target,444.0,True,2,10,26,False,0.0,0.0,0.0,4.0,0
1128,P15,2-back,2,18,P,target,target,460.0,True,2,10,26,False,1.0,1.0,0.0,4.0,0
1129,P15,2-back,2,19,Q,target,target,333.0,True,2,10,26,False,2.0,2.0,0.0,4.0,0
1130,P15,2-back,2,20,P,target,target,340.0,True,2,10,26,False,2.0,3.0,0.0,4.0,0
1131,P15,2-back,2,21,Q,target,target,308.0,True,2,10,26,False,2.0,4.0,0.0,4.0,0
1132,P15,2-back,2,22,Z,non-target,non-target,436.0,True,2,10,26,False,1.0,3.0,0.0,4.0,0
1133,P15,2-back,2,23,Q,target,target,492.0,True,2,10,26,False,1.0,3.0,0.0,4.0,0
1134,P15,2-back,2,24,C,non-target,non-target,404.0,True,2,10,26,False,1.0,2.0,0.0,4.0,0
1135,P15,2-back,2,25,M,non-target,non-target,484.0,True,2,10,26,False,0.0,1.0,0.0,4.0,0
1136,P15,2-back,2,26,C,target,target,324.0,True,2,10,26,False,1.0,2.0,0.0,4.0,0
1137,P15,2-back,2,27,B,non-target,non-target,476.0,True,2,10,26,False,1.0,1.0,0.0,4.0,0
1138,P15,2-back,2,28,F,non-target,non-target,444.0,True,2,10,26,False,0.0,1.0,0.0,4.0,0
1139,P15,2-back,2,29,K,non-target,non-target,428.0,True,2,10,26,False,0.0,1.0,0.0,4.0,0
1140,P15,2-back,2,30,Y,non-target,non-target,388.0,True,2,10,26,False,0.0,0.0,0.0,4.0,0
1141,P15,2-back,3,1,W,burn-in,non-target,541.0,False,2,10,26,False,,,,,0
1142,P15,2-back,3,2,T,burn-in,non-target,413.0,False,2,10,26,False,,,,,0
1143,P15,2-back,3,3,J,burn-in,non-target,742.0,False,2,10,26,False,,,,,0
1144,P15,2-back,3,4,V,non-target,non-target,597.0,True,2,10,26,False,0.0,0.0,0.0,1.0,0
1145,P15,2-back,3,5,J,target,target,486.0,True,2,10,26,False,1.0,1.0,0.0,2.0,0
1146,P15,2-back,3,6,L,non-target,non-target,486.0,True,2,10,26,False,1.0,1.0,0.0,3.0,0
1147,P15,2-back,3,7,J,target,target,486.0,True,2,10,26,False,1.0,2.0,0.0,4.0,0
1148,P15,2-back,3,8,R,non-target,non-target,542.0,True,2,10,26,False,1.0,2.0,0.0,4.0,0
1149,P15,2-back,3,9,N,non-target,non-target,534.0,True,2,10,26,False,0.0,1.0,0.0,4.0,0
1150,P15,2-back,3,10,F,non-target,non-target,526.0,True,2,10,26,False,0.0,1.0,0.0,4.0,0
1151,P15,2-back,3,11,N,target,target,446.0,True,2,10,26,False,1.0,1.0,0.0,4.0,0
1152,P15,2-back,3,12,F,target,target,574.0,True,2,10,26,False,2.0,2.0,0.0,4.0,0
1153,P15,2-back,3,13,N,non-target,target,334.0,False,2,10,26,False,2.0,2.0,0.0,3.0,0
1154,P15,2-back,3,14,G,non-target,non-target,574.0,True,2,10,26,False,1.0,2.0,0.0,3.0,0
1155,P15,2-back,3,15,B,non-target,non-target,542.0,True,2,10,26,False,0.0,1.0,0.0,3.0,0
1156,P15,2-back,3,16,H,non-target,non-target,534.0,True,2,10,26,False,0.0,0.0,0.0,3.0,0
1157,P15,2-back,3,17,P,non-target,non-target,854.0,True,2,10,26,False,0.0,0.0,0.0,4.0,0
1158,P15,2-back,3,18,H,target,target,542.0,True,2,10,26,False,1.0,1.0,0.0,4.0,0
1159,P15,2-back,3,19,P,target,target,366.0,True,2,10,26,False,2.0,2.0,0.0,4.0,0
1160,P15,2-back,3,20,H,target,target,398.0,True,2,10,26,False,2.0,3.0,0.0,4.0,0
1161,P15,2-back,3,21,L,non-target,non-target,493.0,True,2,10,26,False,1.0,3.0,0.0,4.0,0
1162,P15,2-back,3,22,H,target,target,341.0,True,2,10,26,False,1.0,3.0,0.0,4.0,0
1163,P15,2-back,3,23,C,non-target,non-target,485.0,True,2,10,26,False,1.0,2.0,0.0,4.0,0
1164,P15,2-back,3,24,H,target,target,661.0,True,2,10,26,False,1.0,2.0,0.0,4.0,0
1165,P15,2-back,3,25,C,target,target,397.0,True,2,10,26,False,2.0,3.0,0.0,4.0,0
1166,P15,2-back,3,26,M,non-target,non-target,565.0,True,2,10,26,False,1.0,2.0,0.0,4.0,0
1167,P15,2-back,3,27,K,non-target,non-target,485.0,True,2,10,26,False,0.0,2.0,0.0,4.0,0
1168,P15,2-back,3,28,Q,non-target,non-target,485.0,True,2,10,26,False,0.0,1.0,0.0,4.0,0
1169,P15,2-back,3,29,J,non-target,non-target,461.0,True,2,10,26,False,0.0,0.0,0.0,4.0,0
1170,P15,2-back,3,30,Z,non-target,non-target,477.0,True,2,10,26,False,0.0,0.0,0.0,4.0,0
1171,P15,3-back,1,1,F,burn-in,non-target,817.0,False,3,10,26,False,,,,,1
1172,P15,3-back,1,2,W,burn-in,non-target,428.0,False,3,10,26,False,,,,,1
1173,P15,3-back,1,3,P,burn-in,non-target,497.0,False,3,10,26,False,,,,,1
1174,P15,3-back,1,4,F,target,target,553.0,True,3,10,26,False,1.0,1.0,0.0,1.0,1
1175,P15,3-back,1,5,W,target,target,537.0,True,3,10,26,False,1.0,2.0,0.0,2.0,1
1176,P15,3-back,1,6,B,non-target,non-target,505.0,True,3,10,26,False,0.0,2.0,0.0,3.0,1
1177,P15,3-back,1,7,N,non-target,non-target,649.0,True,3,10,26,False,0.0,2.0,0.0,4.0,1
1178,P15,3-back,1,8,V,non-target,non-target,441.0,True,3,10,26,False,0.0,1.0,0.0,4.0,1
1179,P15,3-back,1,9,B,target,target,417.0,True,3,10,26,False,1.0,1.0,0.0,4.0,1
1180,P15,3-back,1,10,N,target,target,521.0,True,3,10,26,False,1.0,2.0,0.0,4.0,1
1181,P15,3-back,1,11,Z,non-target,non-target,481.0,True,3,10,26,False,0.0,2.0,0.0,4.0,1
1182,P15,3-back,1,12,Q,non-target,non-target,465.0,True,3,10,26,False,0.0,2.0,0.0,4.0,1
1183,P15,3-back,1,13,C,non-target,non-target,569.0,True,3,10,26,False,0.0,1.0,0.0,4.0,1
1184,P15,3-back,1,14,Z,target,target,857.0,True,3,10,26,False,1.0,1.0,0.0,4.0,1
1185,P15,3-back,1,15,R,non-target,non-target,456.0,True,3,10,26,False,0.0,1.0,0.0,4.0,1
1186,P15,3-back,1,16,Y,non-target,non-target,456.0,True,3,10,26,False,0.0,1.0,0.0,4.0,1
1187,P15,3-back,1,17,J,non-target,non-target,608.0,True,3,10,26,False,0.0,1.0,0.0,4.0,1
1188,P15,3-back,1,18,R,target,target,656.0,True,3,10,26,False,1.0,1.0,0.0,4.0,1
1189,P15,3-back,1,19,S,non-target,non-target,448.0,True,3,10,26,False,0.0,1.0,0.0,4.0,1
1190,P15,3-back,1,20,K,non-target,non-target,504.0,True,3,10,26,False,0.0,1.0,0.0,4.0,1
1191,P15,3-back,1,21,M,non-target,non-target,464.0,True,3,10,26,False,0.0,1.0,0.0,4.0,1
1192,P15,3-back,1,22,S,target,target,456.0,True,3,10,26,False,1.0,1.0,0.0,4.0,1
1193,P15,3-back,1,23,R,non-target,non-target,440.0,True,3,10,26,False,0.0,1.0,0.0,4.0,1
1194,P15,3-back,1,24,M,target,target,392.0,True,3,10,26,False,1.0,2.0,0.0,4.0,1
1195,P15,3-back,1,25,S,target,target,424.0,True,3,10,26,False,1.0,3.0,0.0,4.0,1
1196,P15,3-back,1,26,S,non-target,non-target,664.0,True,3,10,26,True,1.0,2.0,1.0,4.0,1
1197,P15,3-back,1,27,F,non-target,non-target,576.0,True,3,10,26,False,1.0,2.0,1.0,4.0,1
1198,P15,3-back,1,28,H,non-target,non-target,624.0,True,3,10,26,False,1.0,1.0,1.0,4.0,1
1199,P15,3-back,1,29,W,non-target,non-target,984.0,True,3,10,26,False,0.0,0.0,1.0,4.0,1
1200,P15,3-back,1,30,F,target,non-target,568.0,False,3,10,26,False,1.0,1.0,0.0,3.0,1
1201,P15,3-back,2,1,G,burn-in,non-target,412.0,False,3,10,26,False,,,,,1
1202,P15,3-back,2,2,C,burn-in,non-target,492.0,False,3,10,26,False,,,,,1
1203,P15,3-back,2,3,J,burn-in,non-target,572.0,False,3,10,26,False,,,,,1
1204,P15,3-back,2,4,V,non-target,non-target,428.0,True,3,10,26,False,0.0,0.0,0.0,1.0,1
1205,P15,3-back,2,5,C,target,target,548.0,True,3,10,26,False,1.0,1.0,0.0,2.0,1
1206,P15,3-back,2,6,K,non-target,non-target,492.0,True,3,10,26,False,0.0,1.0,0.0,3.0,1
1207,P15,3-back,2,7,D,non-target,non-target,484.0,True,3,10,26,False,0.0,1.0,0.0,4.0,1
1208,P15,3-back,2,8,Y,non-target,non-target,556.0,True,3,10,26,False,0.0,1.0,0.0,4.0,1
1209,P15,3-back,2,9,K,target,target,412.0,True,3,10,26,False,1.0,1.0,0.0,4.0,1
1210,P15,3-back,2,10,D,target,target,485.0,True,3,10,26,False,1.0,2.0,0.0,4.0,1
