"","participant","condition","block","trial","stimulus","stimulus_type","choice","rt","correct"
"1","P1","2-back",1,1,"B","burn-in",,,
"2","P1","2-back",1,2,"H","burn-in",,,
"3","P1","2-back",1,3,"G","burn-in",,,
"4","P1","2-back",1,4,"H","target","target",814,TRUE
"5","P1","2-back",1,5,"Z","non-target","non-target",2300,TRUE
"6","P1","2-back",1,6,"H","target","target",972,TRUE
"7","P1","2-back",1,7,"W","non-target","non-target",1548,TRUE
"8","P1","2-back",1,8,"Q","non-target","non-target",948,TRUE
"9","P1","2-back",1,9,"V","non-target","non-target",1109,TRUE
"10","P1","2-back",1,10,"B","non-target","non-target",1901,TRUE
"11","P1","2-back",1,11,"V","target","target",948,TRUE
"12","P1","2-back",1,12,"B","target","target",2389,TRUE
"13","P1","2-back",1,13,"S","non-target","non-target",3292,TRUE
"14","P1","2-back",1,14,"B","target","target",1148,TRUE
"15","P1","2-back",1,15,"S","target","non-target",2364,FALSE
"16","P1","2-back",1,16,"P","non-target",,,FALSE
"17","P1","2-back",1,17,"J","non-target","non-target",1700,TRUE
"18","P1","2-back",1,18,"N","non-target","non-target",2668,TRUE
"19","P1","2-back",1,19,"J","target","target",1093,TRUE
"20","P1","2-back",1,20,"G","non-target","non-target",1380,TRUE
"21","P1","2-back",1,21,"M","non-target","non-target",1596,TRUE
"22","P1","2-back",1,22,"T","non-target","non-target",2548,TRUE
"23","P1","2-back",1,23,"K","non-target","non-target",1148,TRUE
"24","P1","2-back",1,24,"T","target","target",2372,TRUE
"25","P1","2-back",1,25,"Q","non-target","non-target",2868,TRUE
"26","P1","2-back",1,26,"T","target","target",948,TRUE
"27","P1","2-back",1,27,"Q","target","target",2332,TRUE
"28","P1","2-back",1,28,"D","non-target","non-target",1836,TRUE
"29","P1","2-back",1,29,"Y","non-target","non-target",1500,TRUE
"30","P1","2-back",1,30,"R","non-target","non-target",1292,TRUE
"31","P1","2-back",2,1,"V","burn-in",,,
"32","P1","2-back",2,2,"W","burn-in",,,
"33","P1","2-back",2,3,"L","burn-in","non-target",2795,TRUE
"34","P1","2-back",2,4,"Z","non-target","non-target",2035,TRUE
"35","P1","2-back",2,5,"F","non-target","non-target",875,TRUE
"36","P1","2-back",2,6,"Z","target","target",963,TRUE
"37","P1","2-back",2,7,"C","non-target","non-target",1691,TRUE
"38","P1","2-back",2,8,"H","non-target","non-target",1230,TRUE
"39","P1","2-back",2,9,"G","non-target","non-target",963,TRUE
"40","P1","2-back",2,10,"H","non-target","target",755,FALSE
"41","P1","2-back",2,11,"G","target","target",955,TRUE
"42","P1","2-back",2,12,"H","target","target",715,TRUE
"43","P1","2-back",2,13,"D","non-target","non-target",1317,TRUE
"44","P1","2-back",2,14,"H","target","target",1971,TRUE
"45","P1","2-back",2,15,"D","target","target",1027,TRUE
"46","P1","2-back",2,16,"C","non-target","non-target",987,TRUE
"47","P1","2-back",2,17,"Y","non-target","non-target",931,TRUE
"48","P1","2-back",2,18,"S","non-target","non-target",827,TRUE
"49","P1","2-back",2,19,"N","non-target","non-target",1507,TRUE
"50","P1","2-back",2,20,"F","non-target","non-target",795,TRUE
"51","P1","2-back",2,21,"Z","non-target","non-target",555,TRUE
"52","P1","2-back",2,22,"M","non-target","non-target",459,TRUE
"53","P1","2-back",2,23,"J","non-target","non-target",715,TRUE
"54","P1","2-back",2,24,"L","non-target","non-target",1051,TRUE
"55","P1","2-back",2,25,"J","target","target",2587,TRUE
"56","P1","2-back",2,26,"L","target","target",1459,TRUE
"57","P1","2-back",2,27,"J","target","target",555,TRUE
"58","P1","2-back",2,28,"L","target","target",829,TRUE
"59","P1","2-back",2,29,"J","target","target",667,TRUE
"60","P1","2-back",2,30,"P","non-target","non-target",1180,TRUE
"61","P1","2-back",3,1,"B","burn-in",,,
"62","P1","2-back",3,2,"Q","burn-in",,,
"63","P1","2-back",3,3,"R","burn-in","non-target",1191,TRUE
"64","P1","2-back",3,4,"T","non-target","non-target",1946,TRUE
"65","P1","2-back",3,5,"R","target","target",1183,TRUE
"66","P1","2-back",3,6,"W","non-target","non-target",783,TRUE
"67","P1","2-back",3,7,"V","non-target","non-target",1370,TRUE
"68","P1","2-back",3,8,"K","non-target","non-target",559,TRUE
"69","P1","2-back",3,9,"N","non-target","non-target",815,TRUE
"70","P1","2-back",3,10,"C","non-target","non-target",871,TRUE
"71","P1","2-back",3,11,"N","target","target",903,TRUE
"72","P1","2-back",3,12,"T","non-target","non-target",1255,TRUE
"73","P1","2-back",3,13,"P","non-target","non-target",959,TRUE
"74","P1","2-back",3,14,"S","non-target","non-target",1423,TRUE
"75","P1","2-back",3,15,"P","target","target",919,TRUE
"76","P1","2-back",3,16,"K","non-target","non-target",1375,TRUE
"77","P1","2-back",3,17,"D","non-target","non-target",1255,TRUE
"78","P1","2-back",3,18,"K","target","target",679,TRUE
"79","P1","2-back",3,19,"F","non-target","non-target",703,TRUE
"80","P1","2-back",3,20,"H","non-target","non-target",862,TRUE
"81","P1","2-back",3,21,"Z","non-target","non-target",766,TRUE
"82","P1","2-back",3,22,"H","target","target",694,TRUE
"83","P1","2-back",3,23,"Z","target","target",838,TRUE
"84","P1","2-back",3,24,"H","target","target",926,TRUE
"85","P1","2-back",3,25,"Z","target","target",1062,TRUE
"86","P1","2-back",3,26,"R","non-target","non-target",766,TRUE
"87","P1","2-back",3,27,"Z","target","target",878,TRUE
"88","P1","2-back",3,28,"W","non-target","non-target",857,TRUE
"89","P1","2-back",3,29,"Z","target","target",702,TRUE
"90","P1","2-back",3,30,"G","non-target","non-target",1654,TRUE
"91","P1","3-back",1,1,"N","burn-in",,,
"92","P1","3-back",1,2,"W","burn-in",,,
"93","P1","3-back",1,3,"Y","burn-in",,,
"94","P1","3-back",1,4,"C","non-target","non-target",1229,TRUE
"95","P1","3-back",1,5,"W","target","non-target",1693,FALSE
"96","P1","3-back",1,6,"Y","target","non-target",1765,FALSE
"97","P1","3-back",1,7,"F","non-target","non-target",2813,TRUE
"98","P1","3-back",1,8,"J","non-target","non-target",3140,TRUE
"99","P1","3-back",1,9,"D","non-target","non-target",2980,TRUE
"100","P1","3-back",1,10,"F","target","target",2716,TRUE
"101","P1","3-back",1,11,"J","target","target",2588,TRUE
"102","P1","3-back",1,12,"R","non-target","non-target",2444,TRUE
"103","P1","3-back",1,13,"V","non-target","non-target",2188,TRUE
"104","P1","3-back",1,14,"J","target","non-target",2636,FALSE
"105","P1","3-back",1,15,"R","target","target",1196,TRUE
"106","P1","3-back",1,16,"L","non-target","non-target",2764,TRUE
"107","P1","3-back",1,17,"J","target","target",1604,TRUE
"108","P1","3-back",1,18,"S","non-target","non-target",3372,TRUE
"109","P1","3-back",1,19,"L","target","non-target",1908,FALSE
"110","P1","3-back",1,20,"P","non-target","non-target",2300,TRUE
"111","P1","3-back",1,21,"T","non-target","non-target",1580,TRUE
"112","P1","3-back",1,22,"Q","non-target","non-target",1524,TRUE
"113","P1","3-back",1,23,"T","non-target","target",1668,FALSE
"114","P1","3-back",1,24,"T","target","target",1092,TRUE
"115","P1","3-back",1,25,"M","non-target","non-target",764,TRUE
"116","P1","3-back",1,26,"T","target","target",1388,TRUE
"117","P1","3-back",1,27,"V","non-target","non-target",2356,TRUE
"118","P1","3-back",1,28,"N","non-target","non-target",1012,TRUE
"119","P1","3-back",1,29,"Y","non-target","non-target",1572,TRUE
"120","P1","3-back",1,30,"H","non-target","target",1700,FALSE
"121","P1","3-back",2,1,"R","burn-in",,,
"122","P1","3-back",2,2,"P","burn-in",,,
"123","P1","3-back",2,3,"Q","burn-in",,,
"124","P1","3-back",2,4,"R","target","target",1089,TRUE
"125","P1","3-back",2,5,"P","target","target",1081,TRUE
"126","P1","3-back",2,6,"B","non-target","non-target",849,TRUE
"127","P1","3-back",2,7,"C","non-target","non-target",2185,TRUE
"128","P1","3-back",2,8,"P","target","target",961,TRUE
"129","P1","3-back",2,9,"F","non-target","non-target",2137,TRUE
"130","P1","3-back",2,10,"G","non-target","non-target",1801,TRUE
"131","P1","3-back",2,11,"P","target","target",673,TRUE
"132","P1","3-back",2,12,"F","target","target",961,TRUE
"133","P1","3-back",2,13,"G","target","target",1985,TRUE
"134","P1","3-back",2,14,"P","target","target",1433,TRUE
"135","P1","3-back",2,15,"D","non-target","non-target",1513,TRUE
"136","P1","3-back",2,16,"K","non-target","non-target",1537,TRUE
"137","P1","3-back",2,17,"L","non-target","non-target",1529,TRUE
"138","P1","3-back",2,18,"S","non-target","non-target",2065,TRUE
"139","P1","3-back",2,19,"K","target","target",625,TRUE
"140","P1","3-back",2,20,"W","non-target","non-target",2785,TRUE
"141","P1","3-back",2,21,"J","non-target","non-target",1361,TRUE
"142","P1","3-back",2,22,"K","target","non-target",2233,FALSE
"143","P1","3-back",2,23,"Z","non-target","non-target",2153,TRUE
"144","P1","3-back",2,24,"C","non-target","non-target",2488,TRUE
"145","P1","3-back",2,25,"K","target","non-target",2272,FALSE
"146","P1","3-back",2,26,"Y","non-target","non-target",2088,TRUE
"147","P1","3-back",2,27,"K","non-target","target",968,FALSE
"148","P1","3-back",2,28,"D","non-target","non-target",2440,TRUE
"149","P1","3-back",2,29,"V","non-target","non-target",1728,TRUE
"150","P1","3-back",2,30,"M","non-target","non-target",1824,TRUE
"151","P1","3-back",3,1,"P","burn-in",,,
"152","P1","3-back",3,2,"L","burn-in",,,
"153","P1","3-back",3,3,"J","burn-in",,,
"154","P1","3-back",3,4,"P","target","target",469,TRUE
"155","P1","3-back",3,5,"L","target","target",1301,TRUE
"156","P1","3-back",3,6,"T","non-target","non-target",1525,TRUE
"157","P1","3-back",3,7,"R","non-target","non-target",2189,TRUE
"158","P1","3-back",3,8,"L","target","non-target",1381,FALSE
"159","P1","3-back",3,9,"B","non-target","non-target",1845,TRUE
"160","P1","3-back",3,10,"R","target","non-target",1581,FALSE
"161","P1","3-back",3,11,"G","non-target","non-target",2349,TRUE
"162","P1","3-back",3,12,"S","non-target","non-target",2277,TRUE
"163","P1","3-back",3,13,"Q","non-target","non-target",2021,TRUE
"164","P1","3-back",3,14,"W","non-target","non-target",2117,TRUE
"165","P1","3-back",3,15,"H","non-target","non-target",3134,TRUE
"166","P1","3-back",3,16,"F","non-target","non-target",1941,TRUE
"167","P1","3-back",3,17,"W","target","target",1094,TRUE
"168","P1","3-back",3,18,"Z","non-target","non-target",1549,TRUE
"169","P1","3-back",3,19,"N","non-target","non-target",2093,TRUE
"170","P1","3-back",3,20,"M","non-target","non-target",1108,TRUE
"171","P1","3-back",3,21,"G","non-target","non-target",1500,TRUE
"172","P1","3-back",3,22,"R","non-target","non-target",1838,TRUE
"173","P1","3-back",3,23,"M","target","target",615,TRUE
"174","P1","3-back",3,24,"V","non-target","non-target",1157,TRUE
"175","P1","3-back",3,25,"N","non-target","non-target",2247,TRUE
"176","P1","3-back",3,26,"M","target","target",3140,TRUE
"177","P1","3-back",3,27,"V","target","non-target",2340,FALSE
"178","P1","3-back",3,28,"N","target","non-target",2020,FALSE
"179","P1","3-back",3,29,"H","non-target","non-target",1181,TRUE
"180","P1","3-back",3,30,"V","target","target",1868,TRUE
"181","P10","2-back",1,1,"Q","burn-in","non-target",554,TRUE
"182","P10","2-back",1,2,"H","burn-in","non-target",306,TRUE
"183","P10","2-back",1,3,"S","burn-in","non-target",425,TRUE
"184","P10","2-back",1,4,"T","non-target","non-target",409,TRUE
"185","P10","2-back",1,5,"B","non-target","non-target",425,TRUE
"186","P10","2-back",1,6,"T","target","target",377,TRUE
"187","P10","2-back",1,7,"J","non-target","non-target",385,TRUE
"188","P10","2-back",1,8,"L","non-target","non-target",633,TRUE
"189","P10","2-back",1,9,"Y","non-target","non-target",561,TRUE
"190","P10","2-back",1,10,"L","target","target",409,TRUE
"191","P10","2-back",1,11,"B","non-target","non-target",385,TRUE
"192","P10","2-back",1,12,"L","target","target",336,TRUE
"193","P10","2-back",1,13,"B","target","target",313,TRUE
"194","P10","2-back",1,14,"L","target","target",297,TRUE
"195","P10","2-back",1,15,"B","target","target",337,TRUE
"196","P10","2-back",1,16,"N","non-target","non-target",433,TRUE
"197","P10","2-back",1,17,"B","target","target",329,TRUE
"198","P10","2-back",1,18,"N","target","target",345,TRUE
"199","P10","2-back",1,19,"C","non-target","non-target",412,TRUE
"200","P10","2-back",1,20,"Q","non-target","non-target",361,TRUE
"201","P10","2-back",1,21,"V","non-target","non-target",497,TRUE
"202","P10","2-back",1,22,"F","non-target","non-target",376,TRUE
"203","P10","2-back",1,23,"K","non-target","non-target",368,TRUE
"204","P10","2-back",1,24,"F","target","target",504,TRUE
"205","P10","2-back",1,25,"W","non-target","non-target",376,TRUE
"206","P10","2-back",1,26,"G","non-target","non-target",464,TRUE
"207","P10","2-back",1,27,"Z","non-target","non-target",512,TRUE
"208","P10","2-back",1,28,"D","non-target","non-target",432,TRUE
"209","P10","2-back",1,29,"H","non-target","non-target",392,TRUE
"210","P10","2-back",1,30,"D","target","target",321,TRUE
"211","P10","2-back",2,1,"T","burn-in",,,
"212","P10","2-back",2,2,"M","burn-in","non-target",389,TRUE
"213","P10","2-back",2,3,"P","burn-in","non-target",357,TRUE
"214","P10","2-back",2,4,"M","target","target",358,TRUE
"215","P10","2-back",2,5,"R","non-target","non-target",733,TRUE
"216","P10","2-back",2,6,"M","target","target",309,TRUE
"217","P10","2-back",2,7,"J","non-target","non-target",375,TRUE
"218","P10","2-back",2,8,"M","target","target",301,TRUE
"219","P10","2-back",2,9,"L","non-target","non-target",405,TRUE
"220","P10","2-back",2,10,"S","non-target","non-target",357,TRUE
"221","P10","2-back",2,11,"L","target","target",325,TRUE
"222","P10","2-back",2,12,"S","target","target",349,TRUE
"223","P10","2-back",2,13,"P","non-target","non-target",397,TRUE
"224","P10","2-back",2,14,"H","non-target","non-target",396,TRUE
"225","P10","2-back",2,15,"P","target","target",428,TRUE
"226","P10","2-back",2,16,"C","non-target","non-target",388,TRUE
"227","P10","2-back",2,17,"P","target","target",412,TRUE
"228","P10","2-back",2,18,"D","non-target","non-target",324,TRUE
"229","P10","2-back",2,19,"Y","non-target","non-target",437,TRUE
"230","P10","2-back",2,20,"Z","non-target","non-target",357,TRUE
"231","P10","2-back",2,21,"M","non-target","non-target",389,TRUE
"232","P10","2-back",2,22,"Z","target","target",413,TRUE
"233","P10","2-back",2,23,"T","non-target","non-target",349,TRUE
"234","P10","2-back",2,24,"F","non-target","non-target",356,TRUE
"235","P10","2-back",2,25,"N","non-target","non-target",364,TRUE
"236","P10","2-back",2,26,"B","non-target","non-target",348,TRUE
"237","P10","2-back",2,27,"N","target","target",564,TRUE
"238","P10","2-back",2,28,"G","non-target","non-target",502,TRUE
"239","P10","2-back",2,29,"N","target","target",324,TRUE
"240","P10","2-back",2,30,"V","non-target","non-target",396,TRUE
"241","P10","2-back",3,1,"Q","burn-in","target",1014,FALSE
"242","P10","2-back",3,2,"K","burn-in","non-target",630,TRUE
"243","P10","2-back",3,3,"L","burn-in","non-target",462,TRUE
"244","P10","2-back",3,4,"J","non-target","non-target",334,TRUE
"245","P10","2-back",3,5,"L","target","target",398,TRUE
"246","P10","2-back",3,6,"R","non-target","non-target",350,TRUE
"247","P10","2-back",3,7,"L","target","target",758,TRUE
"248","P10","2-back",3,8,"W","non-target","non-target",398,TRUE
"249","P10","2-back",3,9,"S","non-target","non-target",414,TRUE
"250","P10","2-back",3,10,"W","target","target",327,TRUE
"251","P10","2-back",3,11,"S","target","target",327,TRUE
"252","P10","2-back",3,12,"W","target","target",334,TRUE
"253","P10","2-back",3,13,"S","target","target",326,TRUE
"254","P10","2-back",3,14,"G","non-target","non-target",374,TRUE
"255","P10","2-back",3,15,"F","non-target","non-target",390,TRUE
"256","P10","2-back",3,16,"C","non-target","non-target",430,TRUE
"257","P10","2-back",3,17,"J","non-target","non-target",438,TRUE
"258","P10","2-back",3,18,"C","target","target",366,TRUE
"259","P10","2-back",3,19,"D","non-target","non-target",382,TRUE
"260","P10","2-back",3,20,"W","non-target","non-target",334,TRUE
"261","P10","2-back",3,21,"D","target","target",502,TRUE
"262","P10","2-back",3,22,"H","non-target","non-target",373,TRUE
"263","P10","2-back",3,23,"D","target","target",325,TRUE
"264","P10","2-back",3,24,"Z","non-target","non-target",389,TRUE
"265","P10","2-back",3,25,"Q","non-target","non-target",390,TRUE
"266","P10","2-back",3,26,"K","non-target","non-target",414,TRUE
"267","P10","2-back",3,27,"Y","non-target","non-target",382,TRUE
"268","P10","2-back",3,28,"T","non-target","non-target",374,TRUE
"269","P10","2-back",3,29,"V","non-target","non-target",502,TRUE
"270","P10","2-back",3,30,"T","target","target",334,TRUE
"271","P10","3-back",1,1,"Z","burn-in","non-target",1268,TRUE
"272","P10","3-back",1,2,"K","burn-in","non-target",412,TRUE
"273","P10","3-back",1,3,"Y","burn-in","non-target",436,TRUE
"274","P10","3-back",1,4,"Z","target","target",412,TRUE
"275","P10","3-back",1,5,"K","target","target",332,TRUE
"276","P10","3-back",1,6,"W","non-target","non-target",548,TRUE
"277","P10","3-back",1,7,"G","non-target","non-target",667,TRUE
"278","P10","3-back",1,8,"K","target","target",363,TRUE
"279","P10","3-back",1,9,"Q","non-target","non-target",403,TRUE
"280","P10","3-back",1,10,"F","non-target","non-target",430,TRUE
"281","P10","3-back",1,11,"K","target","target",372,TRUE
"282","P10","3-back",1,12,"N","non-target","non-target",516,TRUE
"283","P10","3-back",1,13,"B","non-target","non-target",420,TRUE
"284","P10","3-back",1,14,"T","non-target","non-target",388,TRUE
"285","P10","3-back",1,15,"N","target","target",788,TRUE
"286","P10","3-back",1,16,"B","target","target",300,TRUE
"287","P10","3-back",1,17,"D","non-target","non-target",339,TRUE
"288","P10","3-back",1,18,"J","non-target","non-target",563,TRUE
"289","P10","3-back",1,19,"H","non-target","non-target",443,TRUE
"290","P10","3-back",1,20,"C","non-target","non-target",379,TRUE
"291","P10","3-back",1,21,"W","non-target","non-target",411,TRUE
"292","P10","3-back",1,22,"Q","non-target","non-target",411,TRUE
"293","P10","3-back",1,23,"C","non-target","target",355,FALSE
"294","P10","3-back",1,24,"W","target","target",387,TRUE
"295","P10","3-back",1,25,"Q","target","target",459,TRUE
"296","P10","3-back",1,26,"C","target","target",372,TRUE
"297","P10","3-back",1,27,"F","non-target","non-target",371,TRUE
"298","P10","3-back",1,28,"T","non-target","non-target",371,TRUE
"299","P10","3-back",1,29,"V","non-target","non-target",550,TRUE
"300","P10","3-back",1,30,"F","target","target",443,TRUE
"301","P10","3-back",2,1,"S","burn-in","non-target",704,TRUE
"302","P10","3-back",2,2,"M","burn-in","non-target",443,TRUE
"303","P10","3-back",2,3,"N","burn-in","non-target",384,TRUE
"304","P10","3-back",2,4,"L","non-target","non-target",384,TRUE
"305","P10","3-back",2,5,"B","non-target","non-target",384,TRUE
"306","P10","3-back",2,6,"D","non-target","non-target",384,TRUE
"307","P10","3-back",2,7,"R","non-target","non-target",368,TRUE
"308","P10","3-back",2,8,"B","target","target",368,TRUE
"309","P10","3-back",2,9,"K","non-target","non-target",480,TRUE
"310","P10","3-back",2,10,"Y","non-target","non-target",384,TRUE
"311","P10","3-back",2,11,"H","non-target","non-target",368,TRUE
"312","P10","3-back",2,12,"K","target","target",696,TRUE
"313","P10","3-back",2,13,"Y","target","target",592,TRUE
"314","P10","3-back",2,14,"J","non-target","non-target",1087,TRUE
"315","P10","3-back",2,15,"K","target","target",623,TRUE
"316","P10","3-back",2,16,"Z","non-target","non-target",447,TRUE
"317","P10","3-back",2,17,"J","target","non-target",463,FALSE
"318","P10","3-back",2,18,"K","target","target",383,TRUE
"319","P10","3-back",2,19,"P","non-target","non-target",1079,TRUE
"320","P10","3-back",2,20,"J","target","target",935,TRUE
"321","P10","3-back",2,21,"K","target","non-target",576,FALSE
"322","P10","3-back",2,22,"G","non-target","non-target",504,TRUE
"323","P10","3-back",2,23,"H","non-target","non-target",464,TRUE
"324","P10","3-back",2,24,"M","non-target","non-target",407,TRUE
"325","P10","3-back",2,25,"P","non-target","non-target",503,TRUE
"326","P10","3-back",2,26,"N","non-target","non-target",463,TRUE
"327","P10","3-back",2,27,"M","target","target",455,TRUE
"328","P10","3-back",2,28,"P","target","target",799,TRUE
"329","P10","3-back",2,29,"Z","non-target","non-target",847,TRUE
"330","P10","3-back",2,30,"F","non-target","non-target",959,TRUE
"331","P10","3-back",3,1,"Q","burn-in","non-target",789,TRUE
"332","P10","3-back",3,2,"C","burn-in","non-target",308,TRUE
"333","P10","3-back",3,3,"D","burn-in","non-target",364,TRUE
"334","P10","3-back",3,4,"T","non-target","non-target",684,TRUE
"335","P10","3-back",3,5,"J","non-target","non-target",532,TRUE
"336","P10","3-back",3,6,"D","target","target",396,TRUE
"337","P10","3-back",3,7,"G","non-target","non-target",516,TRUE
"338","P10","3-back",3,8,"J","target","target",988,TRUE
"339","P10","3-back",3,9,"R","non-target","non-target",684,TRUE
"340","P10","3-back",3,10,"W","non-target","non-target",572,TRUE
"341","P10","3-back",3,11,"J","target","target",708,TRUE
"342","P10","3-back",3,12,"Y","non-target","non-target",427,TRUE
"343","P10","3-back",3,13,"W","target","target",315,TRUE
"344","P10","3-back",3,14,"S","non-target","non-target",395,TRUE
"345","P10","3-back",3,15,"Y","target","target",331,TRUE
"346","P10","3-back",3,16,"B","non-target","non-target",396,TRUE
"347","P10","3-back",3,17,"S","target","non-target",532,FALSE
"348","P10","3-back",3,18,"V","non-target","non-target",772,TRUE
"349","P10","3-back",3,19,"B","target","target",460,TRUE
"350","P10","3-back",3,20,"L","non-target","non-target",548,TRUE
"351","P10","3-back",3,21,"K","non-target","non-target",732,TRUE
"352","P10","3-back",3,22,"C","non-target","non-target",427,TRUE
"353","P10","3-back",3,23,"B","non-target","non-target",611,TRUE
"354","P10","3-back",3,24,"N","non-target","non-target",531,TRUE
"355","P10","3-back",3,25,"V","non-target","non-target",859,TRUE
"356","P10","3-back",3,26,"B","target","target",467,TRUE
"357","P10","3-back",3,27,"N","target","target",355,TRUE
"358","P10","3-back",3,28,"V","target","target",411,TRUE
"359","P10","3-back",3,29,"T","non-target","non-target",539,TRUE
"360","P10","3-back",3,30,"H","non-target","non-target",379,TRUE
"361","P11","2-back",1,1,"Q","burn-in","non-target",1942,TRUE
"362","P11","2-back",1,2,"K","burn-in","non-target",1094,TRUE
"363","P11","2-back",1,3,"B","burn-in","non-target",758,TRUE
"364","P11","2-back",1,4,"R","non-target","non-target",558,TRUE
"365","P11","2-back",1,5,"F","non-target","non-target",574,TRUE
"366","P11","2-back",1,6,"R","target","target",1822,TRUE
"367","P11","2-back",1,7,"J","non-target","non-target",590,TRUE
"368","P11","2-back",1,8,"R","target","non-target",1207,FALSE
"369","P11","2-back",1,9,"J","target","non-target",975,FALSE
"370","P11","2-back",1,10,"G","non-target","non-target",695,TRUE
"371","P11","2-back",1,11,"J","non-target","non-target",719,TRUE
"372","P11","2-back",1,12,"G","target","non-target",1135,FALSE
"373","P11","2-back",1,13,"J","target","non-target",830,FALSE
"374","P11","2-back",1,14,"G","target","non-target",654,FALSE
"375","P11","2-back",1,15,"N","non-target","non-target",774,TRUE
"376","P11","2-back",1,16,"P","non-target","non-target",566,TRUE
"377","P11","2-back",1,17,"S","non-target","non-target",566,TRUE
"378","P11","2-back",1,18,"P","target","target",926,TRUE
"379","P11","2-back",1,19,"B","non-target","non-target",694,TRUE
"380","P11","2-back",1,20,"G","non-target","target",942,FALSE
"381","P11","2-back",1,21,"M","non-target","non-target",814,TRUE
"382","P11","2-back",1,22,"C","non-target","non-target",486,TRUE
"383","P11","2-back",1,23,"D","non-target","non-target",654,TRUE
"384","P11","2-back",1,24,"L","non-target","non-target",485,TRUE
"385","P11","2-back",1,25,"D","target","target",677,TRUE
"386","P11","2-back",1,26,"L","target","target",1798,TRUE
"387","P11","2-back",1,27,"Y","non-target","non-target",670,TRUE
"388","P11","2-back",1,28,"L","target","target",446,TRUE
"389","P11","2-back",1,29,"R","non-target","non-target",758,TRUE
"390","P11","2-back",1,30,"Q","non-target","non-target",966,TRUE
"391","P11","2-back",2,1,"F","burn-in",,,
"392","P11","2-back",2,2,"W","burn-in",,,
"393","P11","2-back",2,3,"K","burn-in","non-target",784,TRUE
"394","P11","2-back",2,4,"W","target","non-target",344,FALSE
"395","P11","2-back",2,5,"K","target","target",664,TRUE
"396","P11","2-back",2,6,"T","non-target","non-target",1800,TRUE
"397","P11","2-back",2,7,"V","non-target","non-target",840,TRUE
"398","P11","2-back",2,8,"Z","non-target","non-target",488,TRUE
"399","P11","2-back",2,9,"V","target","target",688,TRUE
"400","P11","2-back",2,10,"H","non-target","non-target",488,TRUE
"401","P11","2-back",2,11,"R","non-target","non-target",560,TRUE
"402","P11","2-back",2,12,"L","non-target","non-target",616,TRUE
"403","P11","2-back",2,13,"B","non-target","non-target",575,TRUE
"404","P11","2-back",2,14,"L","target","non-target",1423,FALSE
"405","P11","2-back",2,15,"T","non-target","non-target",743,TRUE
"406","P11","2-back",2,16,"L","target","target",751,TRUE
"407","P11","2-back",2,17,"Z","non-target","non-target",599,TRUE
"408","P11","2-back",2,18,"L","target","target",895,TRUE
"409","P11","2-back",2,19,"S","non-target","non-target",911,TRUE
"410","P11","2-back",2,20,"K","non-target","non-target",543,TRUE
"411","P11","2-back",2,21,"V","non-target","non-target",872,TRUE
"412","P11","2-back",2,22,"D","non-target","non-target",592,TRUE
"413","P11","2-back",2,23,"N","non-target","non-target",656,TRUE
"414","P11","2-back",2,24,"Q","non-target","non-target",559,TRUE
"415","P11","2-back",2,25,"W","non-target","non-target",1039,TRUE
"416","P11","2-back",2,26,"M","non-target","non-target",1199,TRUE
"417","P11","2-back",2,27,"W","target","target",799,TRUE
"418","P11","2-back",2,28,"M","target","target",1119,TRUE
"419","P11","2-back",2,29,"W","target","target",495,TRUE
"420","P11","2-back",2,30,"M","target","target",1791,TRUE
"421","P11","2-back",3,1,"F","burn-in",,,
"422","P11","2-back",3,2,"P","burn-in",,,
"423","P11","2-back",3,3,"J","burn-in","non-target",574,TRUE
"424","P11","2-back",3,4,"Y","non-target","non-target",734,TRUE
"425","P11","2-back",3,5,"G","non-target","non-target",534,TRUE
"426","P11","2-back",3,6,"Y","target","target",639,TRUE
"427","P11","2-back",3,7,"H","non-target","non-target",831,TRUE
"428","P11","2-back",3,8,"C","non-target","non-target",543,TRUE
"429","P11","2-back",3,9,"K","non-target","non-target",799,TRUE
"430","P11","2-back",3,10,"J","non-target","non-target",943,TRUE
"431","P11","2-back",3,11,"K","target","target",335,TRUE
"432","P11","2-back",3,12,"J","target","target",1182,TRUE
"433","P11","2-back",3,13,"K","target","target",1102,TRUE
"434","P11","2-back",3,14,"C","non-target","non-target",486,TRUE
"435","P11","2-back",3,15,"Q","non-target","non-target",942,TRUE
"436","P11","2-back",3,16,"C","target","target",710,TRUE
"437","P11","2-back",3,17,"Q","target","target",608,TRUE
"438","P11","2-back",3,18,"R","non-target","non-target",494,TRUE
"439","P11","2-back",3,19,"H","non-target","non-target",494,TRUE
"440","P11","2-back",3,20,"R","target","non-target",774,FALSE
"441","P11","2-back",3,21,"H","target","target",422,TRUE
"442","P11","2-back",3,22,"P","non-target","non-target",477,TRUE
"443","P11","2-back",3,23,"W","non-target","non-target",477,TRUE
"444","P11","2-back",3,24,"T","non-target","non-target",741,TRUE
"445","P11","2-back",3,25,"W","target","target",1678,TRUE
"446","P11","2-back",3,26,"F","non-target","non-target",470,TRUE
"447","P11","2-back",3,27,"L","non-target","non-target",550,TRUE
"448","P11","2-back",3,28,"F","target","target",862,TRUE
"449","P11","2-back",3,29,"N","non-target","non-target",414,TRUE
"450","P11","2-back",3,30,"Y","non-target","non-target",686,TRUE
"451","P11","3-back",1,1,"N","burn-in","non-target",1698,TRUE
"452","P11","3-back",1,2,"B","burn-in","non-target",466,TRUE
"453","P11","3-back",1,3,"H","burn-in","non-target",554,TRUE
"454","P11","3-back",1,4,"N","target","non-target",1385,FALSE
"455","P11","3-back",1,5,"D","non-target","non-target",537,TRUE
"456","P11","3-back",1,6,"H","target","target",1409,TRUE
"457","P11","3-back",1,7,"F","non-target","non-target",497,TRUE
"458","P11","3-back",1,8,"D","target","non-target",529,FALSE
"459","P11","3-back",1,9,"G","non-target","non-target",529,TRUE
"460","P11","3-back",1,10,"L","non-target","non-target",513,TRUE
"461","P11","3-back",1,11,"K","non-target","non-target",489,TRUE
"462","P11","3-back",1,12,"G","target","target",737,TRUE
"463","P11","3-back",1,13,"L","target","non-target",697,FALSE
"464","P11","3-back",1,14,"Q","non-target","non-target",537,TRUE
"465","P11","3-back",1,15,"T","non-target","non-target",457,TRUE
"466","P11","3-back",1,16,"L","target","target",601,TRUE
"467","P11","3-back",1,17,"Q","target","target",489,TRUE
"468","P11","3-back",1,18,"C","non-target","non-target",449,TRUE
"469","P11","3-back",1,19,"Z","non-target","non-target",473,TRUE
"470","P11","3-back",1,20,"Y","non-target","non-target",657,TRUE
"471","P11","3-back",1,21,"C","target","non-target",801,FALSE
"472","P11","3-back",1,22,"S","non-target","non-target",553,TRUE
"473","P11","3-back",1,23,"L","non-target","non-target",481,TRUE
"474","P11","3-back",1,24,"C","target","target",641,TRUE
"475","P11","3-back",1,25,"P","non-target","non-target",513,TRUE
"476","P11","3-back",1,26,"H","non-target","non-target",448,TRUE
"477","P11","3-back",1,27,"R","non-target","non-target",753,TRUE
"478","P11","3-back",1,28,"Q","non-target","non-target",520,TRUE
"479","P11","3-back",1,29,"H","target","non-target",880,FALSE
"480","P11","3-back",1,30,"Z","non-target","non-target",816,TRUE
"481","P11","3-back",2,1,"F","burn-in","non-target",1064,TRUE
"482","P11","3-back",2,2,"S","burn-in","non-target",360,TRUE
"483","P11","3-back",2,3,"K","burn-in","non-target",376,TRUE
"484","P11","3-back",2,4,"F","target","target",392,TRUE
"485","P11","3-back",2,5,"C","non-target","non-target",400,TRUE
"486","P11","3-back",2,6,"D","non-target","non-target",456,TRUE
"487","P11","3-back",2,7,"F","target","target",1000,TRUE
"488","P11","3-back",2,8,"B","non-target","non-target",480,TRUE
"489","P11","3-back",2,9,"T","non-target","non-target",512,TRUE
"490","P11","3-back",2,10,"F","target","target",840,TRUE
"491","P11","3-back",2,11,"V","non-target","non-target",600,TRUE
"492","P11","3-back",2,12,"G","non-target","non-target",512,TRUE
"493","P11","3-back",2,13,"M","non-target","non-target",519,TRUE
"494","P11","3-back",2,14,"J","non-target","non-target",671,TRUE
"495","P11","3-back",2,15,"G","target","target",847,TRUE
"496","P11","3-back",2,16,"N","non-target","non-target",431,TRUE
"497","P11","3-back",2,17,"W","non-target","non-target",447,TRUE
"498","P11","3-back",2,18,"Y","non-target","non-target",735,TRUE
"499","P11","3-back",2,19,"L","non-target","non-target",847,TRUE
"500","P11","3-back",2,20,"W","target","target",776,TRUE
"501","P11","3-back",2,21,"Y","target","non-target",1352,FALSE
"502","P11","3-back",2,22,"S","non-target","non-target",656,TRUE
"503","P11","3-back",2,23,"W","target","target",471,TRUE
"504","P11","3-back",2,24,"Y","target","target",2095,TRUE
"505","P11","3-back",2,25,"C","non-target","non-target",695,TRUE
"506","P11","3-back",2,26,"P","non-target","non-target",887,TRUE
"507","P11","3-back",2,27,"Y","target","target",935,TRUE
"508","P11","3-back",2,28,"Y","non-target","non-target",791,TRUE
"509","P11","3-back",2,29,"P","target","non-target",999,FALSE
"510","P11","3-back",2,30,"F","non-target","non-target",727,TRUE
"511","P11","3-back",3,1,"H","burn-in","non-target",690,TRUE
"512","P11","3-back",3,2,"V","burn-in","non-target",410,TRUE
"513","P11","3-back",3,3,"B","burn-in","non-target",385,TRUE
"514","P11","3-back",3,4,"W","non-target","non-target",457,TRUE
"515","P11","3-back",3,5,"K","non-target","non-target",465,TRUE
"516","P11","3-back",3,6,"Q","non-target","non-target",425,TRUE
"517","P11","3-back",3,7,"Z","non-target","non-target",665,TRUE
"518","P11","3-back",3,8,"K","target","target",689,TRUE
"519","P11","3-back",3,9,"J","non-target","non-target",577,TRUE
"520","P11","3-back",3,10,"Z","target","target",697,TRUE
"521","P11","3-back",3,11,"M","non-target","non-target",553,TRUE
"522","P11","3-back",3,12,"T","non-target","non-target",641,TRUE
"523","P11","3-back",3,13,"Z","target","target",969,TRUE
"524","P11","3-back",3,14,"M","target","non-target",904,FALSE
"525","P11","3-back",3,15,"N","non-target","non-target",553,TRUE
"526","P11","3-back",3,16,"R","non-target","non-target",673,TRUE
"527","P11","3-back",3,17,"D","non-target","non-target",537,TRUE
"528","P11","3-back",3,18,"G","non-target","non-target",561,TRUE
"529","P11","3-back",3,19,"B","non-target","non-target",633,TRUE
"530","P11","3-back",3,20,"D","target","target",665,TRUE
"531","P11","3-back",3,21,"Y","non-target","non-target",633,TRUE
"532","P11","3-back",3,22,"B","target","target",817,TRUE
"533","P11","3-back",3,23,"D","target","target",697,TRUE
"534","P11","3-back",3,24,"Z","non-target","non-target",944,TRUE
"535","P11","3-back",3,25,"B","target","non-target",1600,FALSE
"536","P11","3-back",3,26,"V","non-target","non-target",768,TRUE
"537","P11","3-back",3,27,"Z","target","target",1632,TRUE
"538","P11","3-back",3,28,"B","target","target",1144,TRUE
"539","P11","3-back",3,29,"S","non-target","non-target",760,TRUE
"540","P11","3-back",3,30,"H","non-target","non-target",600,TRUE
"541","P12","2-back",1,1,"Z","burn-in","non-target",492,TRUE
"542","P12","2-back",1,2,"T","burn-in","non-target",581,TRUE
"543","P12","2-back",1,3,"W","burn-in","non-target",628,TRUE
"544","P12","2-back",1,4,"S","non-target","non-target",524,TRUE
"545","P12","2-back",1,5,"R","non-target","non-target",732,TRUE
"546","P12","2-back",1,6,"S","target","target",364,TRUE
"547","P12","2-back",1,7,"B","non-target","non-target",492,TRUE
"548","P12","2-back",1,8,"M","non-target","non-target",572,TRUE
"549","P12","2-back",1,9,"V","non-target","non-target",508,TRUE
"550","P12","2-back",1,10,"M","target","target",381,TRUE
"551","P12","2-back",1,11,"L","non-target","non-target",589,TRUE
"552","P12","2-back",1,12,"Y","non-target","non-target",581,TRUE
"553","P12","2-back",1,13,"L","target","target",533,TRUE
"554","P12","2-back",1,14,"Y","target","target",405,TRUE
"555","P12","2-back",1,15,"L","target","target",493,TRUE
"556","P12","2-back",1,16,"D","non-target","non-target",413,TRUE
"557","P12","2-back",1,17,"K","non-target","non-target",516,TRUE
"558","P12","2-back",1,18,"D","target","target",396,TRUE
"559","P12","2-back",1,19,"S","non-target","non-target",556,TRUE
"560","P12","2-back",1,20,"D","target","target",604,TRUE
"561","P12","2-back",1,21,"N","non-target","non-target",500,TRUE
"562","P12","2-back",1,22,"Z","non-target","non-target",540,TRUE
"563","P12","2-back",1,23,"T","non-target","non-target",492,TRUE
"564","P12","2-back",1,24,"Z","target","target",324,TRUE
"565","P12","2-back",1,25,"T","target","target",460,TRUE
"566","P12","2-back",1,26,"Z","target","target",716,TRUE
"567","P12","2-back",1,27,"F","non-target","non-target",572,TRUE
"568","P12","2-back",1,28,"J","non-target","non-target",588,TRUE
"569","P12","2-back",1,29,"B","non-target","non-target",468,TRUE
"570","P12","2-back",1,30,"M","non-target","non-target",452,TRUE
"571","P12","2-back",2,1,"W","burn-in","non-target",417,TRUE
"572","P12","2-back",2,2,"C","burn-in","non-target",649,TRUE
"573","P12","2-back",2,3,"R","burn-in","non-target",689,TRUE
"574","P12","2-back",2,4,"P","non-target","non-target",417,TRUE
"575","P12","2-back",2,5,"Q","non-target","non-target",417,TRUE
"576","P12","2-back",2,6,"H","non-target","non-target",473,TRUE
"577","P12","2-back",2,7,"G","non-target","non-target",441,TRUE
"578","P12","2-back",2,8,"R","non-target","non-target",456,TRUE
"579","P12","2-back",2,9,"Q","non-target","non-target",472,TRUE
"580","P12","2-back",2,10,"Y","non-target","non-target",624,TRUE
"581","P12","2-back",2,11,"D","non-target","non-target",448,TRUE
"582","P12","2-back",2,12,"W","non-target","non-target",472,TRUE
"583","P12","2-back",2,13,"Z","non-target","non-target",520,TRUE
"584","P12","2-back",2,14,"W","target","target",512,TRUE
"585","P12","2-back",2,15,"Z","target","target",2456,TRUE
"586","P12","2-back",2,16,"W","target","target",648,TRUE
"587","P12","2-back",2,17,"Z","target","target",560,TRUE
"588","P12","2-back",2,18,"W","target","target",448,TRUE
"589","P12","2-back",2,19,"Z","target","non-target",408,FALSE
"590","P12","2-back",2,20,"W","target","target",464,TRUE
"591","P12","2-back",2,21,"H","non-target","non-target",464,TRUE
"592","P12","2-back",2,22,"W","target","non-target",967,FALSE
"593","P12","2-back",2,23,"H","target","target",535,TRUE
"594","P12","2-back",2,24,"W","target","target",432,TRUE
"595","P12","2-back",2,25,"N","non-target","non-target",448,TRUE
"596","P12","2-back",2,26,"M","non-target","non-target",760,TRUE
"597","P12","2-back",2,27,"L","non-target","non-target",360,TRUE
"598","P12","2-back",2,28,"V","non-target","non-target",576,TRUE
"599","P12","2-back",2,29,"J","non-target","non-target",424,TRUE
"600","P12","2-back",2,30,"K","non-target","non-target",424,TRUE
"601","P12","2-back",3,1,"S","burn-in","non-target",1357,TRUE
"602","P12","2-back",3,2,"B","burn-in","non-target",597,TRUE
"603","P12","2-back",3,3,"G","burn-in","non-target",485,TRUE
"604","P12","2-back",3,4,"F","non-target","non-target",572,TRUE
"605","P12","2-back",3,5,"T","non-target","non-target",484,TRUE
"606","P12","2-back",3,6,"P","non-target","non-target",412,TRUE
"607","P12","2-back",3,7,"T","target","target",332,TRUE
"608","P12","2-back",3,8,"P","target","target",500,TRUE
"609","P12","2-back",3,9,"C","non-target","non-target",452,TRUE
"610","P12","2-back",3,10,"Z","non-target","non-target",396,TRUE
"611","P12","2-back",3,11,"C","target","target",420,TRUE
"612","P12","2-back",3,12,"Q","non-target","non-target",477,TRUE
"613","P12","2-back",3,13,"V","non-target","non-target",445,TRUE
"614","P12","2-back",3,14,"Q","target","target",389,TRUE
"615","P12","2-back",3,15,"V","target","target",565,TRUE
"616","P12","2-back",3,16,"G","non-target","non-target",341,TRUE
"617","P12","2-back",3,17,"P","non-target","non-target",533,TRUE
"618","P12","2-back",3,18,"G","target","target",348,TRUE
"619","P12","2-back",3,19,"W","non-target","non-target",452,TRUE
"620","P12","2-back",3,20,"L","non-target","non-target",676,TRUE
"621","P12","2-back",3,21,"W","target","target",364,TRUE
"622","P12","2-back",3,22,"B","non-target","non-target",476,TRUE
"623","P12","2-back",3,23,"W","target","target",516,TRUE
"624","P12","2-back",3,24,"F","non-target","non-target",412,TRUE
"625","P12","2-back",3,25,"C","non-target","non-target",644,TRUE
"626","P12","2-back",3,26,"F","target","target",444,TRUE
"627","P12","2-back",3,27,"C","target","target",372,TRUE
"628","P12","2-back",3,28,"M","non-target","non-target",652,TRUE
"629","P12","2-back",3,29,"T","non-target","non-target",524,TRUE
"630","P12","2-back",3,30,"K","non-target","non-target",452,TRUE
"631","P12","3-back",1,1,"R","burn-in","non-target",410,TRUE
"632","P12","3-back",1,2,"V","burn-in","non-target",722,TRUE
"633","P12","3-back",1,3,"B","burn-in","non-target",402,TRUE
"634","P12","3-back",1,4,"R","target","target",698,TRUE
"635","P12","3-back",1,5,"V","target","target",842,TRUE
"636","P12","3-back",1,6,"H","non-target","non-target",690,TRUE
"637","P12","3-back",1,7,"S","non-target","non-target",842,TRUE
"638","P12","3-back",1,8,"T","non-target","non-target",1178,TRUE
"639","P12","3-back",1,9,"W","non-target","non-target",755,TRUE
"640","P12","3-back",1,10,"Z","non-target","non-target",539,TRUE
"641","P12","3-back",1,11,"T","target","target",362,TRUE
"642","P12","3-back",1,12,"W","target","target",842,TRUE
"643","P12","3-back",1,13,"L","non-target","non-target",570,TRUE
"644","P12","3-back",1,14,"Y","non-target","non-target",1050,TRUE
"645","P12","3-back",1,15,"N","non-target","non-target",642,TRUE
"646","P12","3-back",1,16,"G","non-target","non-target",706,TRUE
"647","P12","3-back",1,17,"Y","target","target",547,TRUE
"648","P12","3-back",1,18,"Q","non-target","non-target",666,TRUE
"649","P12","3-back",1,19,"D","non-target","non-target",1098,TRUE
"650","P12","3-back",1,20,"Y","target","target",906,TRUE
"651","P12","3-back",1,21,"Q","target","target",1218,TRUE
"652","P12","3-back",1,22,"J","non-target","non-target",386,TRUE
"653","P12","3-back",1,23,"Y","target","target",850,TRUE
"654","P12","3-back",1,24,"C","non-target","non-target",850,TRUE
"655","P12","3-back",1,25,"G","non-target","non-target",705,TRUE
"656","P12","3-back",1,26,"H","non-target","non-target",1113,TRUE
"657","P12","3-back",1,27,"Z","non-target","target",777,FALSE
"658","P12","3-back",1,28,"G","target","target",1146,TRUE
"659","P12","3-back",1,29,"Y","non-target","target",1705,FALSE
"660","P12","3-back",1,30,"Z","target","target",449,TRUE
"661","P12","3-back",2,1,"L","burn-in","non-target",489,TRUE
"662","P12","3-back",2,2,"B","burn-in","non-target",1234,TRUE
"663","P12","3-back",2,3,"T","burn-in","non-target",681,TRUE
"664","P12","3-back",2,4,"K","non-target","non-target",1164,TRUE
"665","P12","3-back",2,5,"R","non-target","non-target",1297,TRUE
"666","P12","3-back",2,6,"S","non-target","non-target",744,TRUE
"667","P12","3-back",2,7,"P","non-target","non-target",1161,TRUE
"668","P12","3-back",2,8,"Q","non-target","non-target",825,TRUE
"669","P12","3-back",2,9,"D","non-target","non-target",617,TRUE
"670","P12","3-back",2,10,"P","target","target",489,TRUE
"671","P12","3-back",2,11,"Q","target","target",2153,TRUE
"672","P12","3-back",2,12,"D","target","target",1553,TRUE
"673","P12","3-back",2,13,"P","target","target",1441,TRUE
"674","P12","3-back",2,14,"F","non-target","non-target",918,TRUE
"675","P12","3-back",2,15,"D","target","target",449,TRUE
"676","P12","3-back",2,16,"N","non-target","non-target",767,TRUE
"677","P12","3-back",2,17,"F","target","target",769,TRUE
"678","P12","3-back",2,18,"M","non-target","non-target",681,TRUE
"679","P12","3-back",2,19,"N","target","non-target",1665,FALSE
"680","P12","3-back",2,20,"F","target","non-target",2232,FALSE
"681","P12","3-back",2,21,"V","non-target","non-target",1008,TRUE
"682","P12","3-back",2,22,"N","target","target",1197,TRUE
"683","P12","3-back",2,23,"W","non-target","non-target",635,TRUE
"684","P12","3-back",2,24,"J","non-target","non-target",784,TRUE
"685","P12","3-back",2,25,"Z","non-target","target",1392,FALSE
"686","P12","3-back",2,26,"T","non-target","non-target",1512,TRUE
"687","P12","3-back",2,27,"W","non-target","non-target",2272,TRUE
"688","P12","3-back",2,28,"Z","target","target",712,TRUE
"689","P12","3-back",2,29,"C","non-target","non-target",504,TRUE
"690","P12","3-back",2,30,"F","non-target","non-target",1136,TRUE
"691","P12","3-back",3,1,"V","burn-in","non-target",952,TRUE
"692","P12","3-back",3,2,"N","burn-in","non-target",792,TRUE
"693","P12","3-back",3,3,"P","burn-in","non-target",423,TRUE
"694","P12","3-back",3,4,"H","non-target","non-target",656,TRUE
"695","P12","3-back",3,5,"N","target","target",1032,TRUE
"696","P12","3-back",3,6,"D","non-target","non-target",1272,TRUE
"697","P12","3-back",3,7,"H","target","target",616,TRUE
"698","P12","3-back",3,8,"R","non-target","non-target",1312,TRUE
"699","P12","3-back",3,9,"D","target","non-target",2424,FALSE
"700","P12","3-back",3,10,"M","non-target","non-target",3232,TRUE
"701","P12","3-back",3,11,"K","non-target","non-target",2384,TRUE
"702","P12","3-back",3,12,"L","non-target","non-target",1461,TRUE
"703","P12","3-back",3,13,"M","target","target",696,TRUE
"704","P12","3-back",3,14,"G","non-target","non-target",904,TRUE
"705","P12","3-back",3,15,"Y","non-target","non-target",720,TRUE
"706","P12","3-back",3,16,"M","target","target",1111,TRUE
"707","P12","3-back",3,17,"Q","non-target","non-target",1223,TRUE
"708","P12","3-back",3,18,"S","non-target","non-target",1319,TRUE
"709","P12","3-back",3,19,"B","non-target","non-target",1567,TRUE
"710","P12","3-back",3,20,"G","non-target","non-target",1255,TRUE
"711","P12","3-back",3,21,"S","non-target","target",1135,FALSE
"712","P12","3-back",3,22,"B","target","target",455,TRUE
"713","P12","3-back",3,23,"Y","non-target","non-target",1327,TRUE
"714","P12","3-back",3,24,"P","non-target","non-target",1887,TRUE
"715","P12","3-back",3,25,"J","non-target","non-target",991,TRUE
"716","P12","3-back",3,26,"Y","target","target",543,TRUE
"717","P12","3-back",3,27,"P","target","target",2091,TRUE
"718","P12","3-back",3,28,"J","target","target",767,TRUE
"719","P12","3-back",3,29,"Y","target","target",623,TRUE
"720","P12","3-back",3,30,"W","non-target","non-target",638,TRUE
"721","P13","2-back",1,1,"C","burn-in","non-target",1872,TRUE
"722","P13","2-back",1,2,"N","burn-in","non-target",744,TRUE
"723","P13","2-back",1,3,"F","burn-in","non-target",521,TRUE
"724","P13","2-back",1,4,"R","non-target","non-target",1137,TRUE
"725","P13","2-back",1,5,"F","target","target",481,TRUE
"726","P13","2-back",1,6,"V","non-target","non-target",433,TRUE
"727","P13","2-back",1,7,"Y","non-target","non-target",1633,TRUE
"728","P13","2-back",1,8,"B","non-target","non-target",577,TRUE
"729","P13","2-back",1,9,"Y","target","target",585,TRUE
"730","P13","2-back",1,10,"B","target","target",601,TRUE
"731","P13","2-back",1,11,"L","non-target","non-target",601,TRUE
"732","P13","2-back",1,12,"Q","non-target","non-target",912,TRUE
"733","P13","2-back",1,13,"L","target","target",672,TRUE
"734","P13","2-back",1,14,"J","non-target","non-target",480,TRUE
"735","P13","2-back",1,15,"T","non-target","non-target",608,TRUE
"736","P13","2-back",1,16,"K","non-target","non-target",680,TRUE
"737","P13","2-back",1,17,"R","non-target","non-target",856,TRUE
"738","P13","2-back",1,18,"W","non-target","non-target",880,TRUE
"739","P13","2-back",1,19,"G","non-target","non-target",736,TRUE
"740","P13","2-back",1,20,"W","target","target",400,TRUE
"741","P13","2-back",1,21,"P","non-target","non-target",456,TRUE
"742","P13","2-back",1,22,"N","non-target","non-target",968,TRUE
"743","P13","2-back",1,23,"P","target","target",504,TRUE
"744","P13","2-back",1,24,"Y","non-target","non-target",656,TRUE
"745","P13","2-back",1,25,"S","non-target","non-target",832,TRUE
"746","P13","2-back",1,26,"B","non-target","non-target",1120,TRUE
"747","P13","2-back",1,27,"S","target","target",823,TRUE
"748","P13","2-back",1,28,"B","target","target",1095,TRUE
"749","P13","2-back",1,29,"S","target","target",1023,TRUE
"750","P13","2-back",1,30,"B","target","target",1141,TRUE
"751","P13","2-back",2,1,"C","burn-in","non-target",1160,TRUE
"752","P13","2-back",2,2,"D","burn-in","non-target",1120,TRUE
"753","P13","2-back",2,3,"Z","burn-in","non-target",448,TRUE
"754","P13","2-back",2,4,"D","target","target",552,TRUE
"755","P13","2-back",2,5,"Z","target","target",440,TRUE
"756","P13","2-back",2,6,"D","target","target",1048,TRUE
"757","P13","2-back",2,7,"M","non-target","non-target",528,TRUE
"758","P13","2-back",2,8,"F","non-target","non-target",1023,TRUE
"759","P13","2-back",2,9,"V","non-target","non-target",831,TRUE
"760","P13","2-back",2,10,"H","non-target","non-target",727,TRUE
"761","P13","2-back",2,11,"W","non-target","non-target",1135,TRUE
"762","P13","2-back",2,12,"H","target","target",1519,TRUE
"763","P13","2-back",2,13,"R","non-target","non-target",1151,TRUE
"764","P13","2-back",2,14,"D","non-target","non-target",1071,TRUE
"765","P13","2-back",2,15,"Z","non-target","non-target",927,TRUE
"766","P13","2-back",2,16,"H","non-target","non-target",895,TRUE
"767","P13","2-back",2,17,"Z","target","target",503,TRUE
"768","P13","2-back",2,18,"H","target","target",847,TRUE
"769","P13","2-back",2,19,"Q","non-target","non-target",471,TRUE
"770","P13","2-back",2,20,"H","target","target",455,TRUE
"771","P13","2-back",2,21,"V","non-target","non-target",439,TRUE
"772","P13","2-back",2,22,"B","non-target","non-target",830,TRUE
"773","P13","2-back",2,23,"L","non-target","non-target",806,TRUE
"774","P13","2-back",2,24,"N","non-target","non-target",830,TRUE
"775","P13","2-back",2,25,"L","target","target",1038,TRUE
"776","P13","2-back",2,26,"T","non-target","non-target",774,TRUE
"777","P13","2-back",2,27,"M","non-target","non-target",1310,TRUE
"778","P13","2-back",2,28,"T","target","target",795,TRUE
"779","P13","2-back",2,29,"M","target","target",654,TRUE
"780","P13","2-back",2,30,"C","non-target","non-target",606,TRUE
"781","P13","2-back",3,1,"F","burn-in","non-target",903,TRUE
"782","P13","2-back",3,2,"J","burn-in","non-target",538,TRUE
"783","P13","2-back",3,3,"S","burn-in","non-target",608,TRUE
"784","P13","2-back",3,4,"K","non-target","non-target",782,TRUE
"785","P13","2-back",3,5,"Y","non-target","non-target",518,TRUE
"786","P13","2-back",3,6,"K","target","target",670,TRUE
"787","P13","2-back",3,7,"P","non-target","non-target",496,TRUE
"788","P13","2-back",3,8,"G","non-target","non-target",662,TRUE
"789","P13","2-back",3,9,"P","target","target",934,TRUE
"790","P13","2-back",3,10,"G","target","target",566,TRUE
"791","P13","2-back",3,11,"G","non-target","non-target",638,TRUE
"792","P13","2-back",3,12,"B","non-target","non-target",1462,TRUE
"793","P13","2-back",3,13,"G","target","target",1058,TRUE
"794","P13","2-back",3,14,"R","non-target","non-target",1014,TRUE
"795","P13","2-back",3,15,"L","non-target","non-target",1270,TRUE
"796","P13","2-back",3,16,"R","target","target",734,TRUE
"797","P13","2-back",3,17,"N","non-target","non-target",758,TRUE
"798","P13","2-back",3,18,"P","non-target","non-target",1205,TRUE
"799","P13","2-back",3,19,"N","target","target",1374,TRUE
"800","P13","2-back",3,20,"F","non-target","non-target",1645,TRUE
"801","P13","2-back",3,21,"N","target","target",869,TRUE
"802","P13","2-back",3,22,"F","target","target",2237,TRUE
"803","P13","2-back",3,23,"M","non-target","non-target",2245,TRUE
"804","P13","2-back",3,24,"C","non-target","non-target",1917,TRUE
"805","P13","2-back",3,25,"D","non-target","non-target",1301,TRUE
"806","P13","2-back",3,26,"C","target","target",589,TRUE
"807","P13","2-back",3,27,"H","non-target","non-target",2149,TRUE
"808","P13","2-back",3,28,"C","target","target",989,TRUE
"809","P13","2-back",3,29,"K","non-target","non-target",934,TRUE
"810","P13","2-back",3,30,"Y","non-target","non-target",766,TRUE
"811","P13","3-back",1,1,"L","burn-in","non-target",854,TRUE
"812","P13","3-back",1,2,"M","burn-in","non-target",422,TRUE
"813","P13","3-back",1,3,"H","burn-in","non-target",566,TRUE
"814","P13","3-back",1,4,"L","target","target",615,TRUE
"815","P13","3-back",1,5,"M","target","target",679,TRUE
"816","P13","3-back",1,6,"B","non-target","non-target",1311,TRUE
"817","P13","3-back",1,7,"N","non-target","non-target",1047,TRUE
"818","P13","3-back",1,8,"Y","non-target","non-target",1199,TRUE
"819","P13","3-back",1,9,"T","non-target","non-target",887,TRUE
"820","P13","3-back",1,10,"W","non-target","non-target",822,TRUE
"821","P13","3-back",1,11,"R","non-target","non-target",710,TRUE
"822","P13","3-back",1,12,"T","target","target",470,TRUE
"823","P13","3-back",1,13,"V","non-target","non-target",1334,TRUE
"824","P13","3-back",1,14,"D","non-target","non-target",758,TRUE
"825","P13","3-back",1,15,"T","target","target",830,TRUE
"826","P13","3-back",1,16,"V","target","target",1334,TRUE
"827","P13","3-back",1,17,"K","non-target","non-target",534,TRUE
"828","P13","3-back",1,18,"T","target","target",774,TRUE
"829","P13","3-back",1,19,"Q","non-target","non-target",1222,TRUE
"830","P13","3-back",1,20,"K","target","target",846,TRUE
"831","P13","3-back",1,21,"Z","non-target","non-target",806,TRUE
"832","P13","3-back",1,22,"Q","target","target",390,TRUE
"833","P13","3-back",1,23,"K","target","target",550,TRUE
"834","P13","3-back",1,24,"C","non-target","non-target",445,TRUE
"835","P13","3-back",1,25,"G","non-target","non-target",1069,TRUE
"836","P13","3-back",1,26,"S","non-target","non-target",653,TRUE
"837","P13","3-back",1,27,"C","target","target",445,TRUE
"838","P13","3-back",1,28,"D","non-target","non-target",1061,TRUE
"839","P13","3-back",1,29,"Q","non-target","non-target",837,TRUE
"840","P13","3-back",1,30,"Y","non-target","non-target",645,TRUE
"841","P13","3-back",2,1,"L","burn-in","non-target",867,TRUE
"842","P13","3-back",2,2,"Z","burn-in","non-target",747,TRUE
"843","P13","3-back",2,3,"T","burn-in","non-target",387,TRUE
"844","P13","3-back",2,4,"N","non-target","non-target",555,TRUE
"845","P13","3-back",2,5,"K","non-target","non-target",650,TRUE
"846","P13","3-back",2,6,"F","non-target","non-target",1026,TRUE
"847","P13","3-back",2,7,"N","target","target",538,TRUE
"848","P13","3-back",2,8,"P","non-target","non-target",794,TRUE
"849","P13","3-back",2,9,"M","non-target","non-target",554,TRUE
"850","P13","3-back",2,10,"V","non-target","non-target",2572,TRUE
"851","P13","3-back",2,11,"P","target","target",966,TRUE
"852","P13","3-back",2,12,"B","non-target","non-target",898,TRUE
"853","P13","3-back",2,13,"V","target","target",458,TRUE
"854","P13","3-back",2,14,"W","non-target","non-target",522,TRUE
"855","P13","3-back",2,15,"R","non-target","non-target",1882,TRUE
"856","P13","3-back",2,16,"V","target","target",626,TRUE
"857","P13","3-back",2,17,"H","non-target","non-target",666,TRUE
"858","P13","3-back",2,18,"J","non-target","non-target",1034,TRUE
"859","P13","3-back",2,19,"V","target","target",466,TRUE
"860","P13","3-back",2,20,"H","target","target",633,TRUE
"861","P13","3-back",2,21,"J","target","target",465,TRUE
"862","P13","3-back",2,22,"V","target","target",538,TRUE
"863","P13","3-back",2,23,"D","non-target","non-target",578,TRUE
"864","P13","3-back",2,24,"S","non-target","non-target",570,TRUE
"865","P13","3-back",2,25,"F","non-target","non-target",1330,TRUE
"866","P13","3-back",2,26,"C","non-target","non-target",890,TRUE
"867","P13","3-back",2,27,"M","non-target","non-target",712,TRUE
"868","P13","3-back",2,28,"P","non-target","non-target",626,TRUE
"869","P13","3-back",2,29,"C","target","target",482,TRUE
"870","P13","3-back",2,30,"M","target","target",458,TRUE
"871","P13","3-back",3,1,"J","burn-in","non-target",1141,TRUE
"872","P13","3-back",3,2,"N","burn-in","non-target",532,TRUE
"873","P13","3-back",3,3,"G","burn-in","non-target",396,TRUE
"874","P13","3-back",3,4,"K","non-target","non-target",996,TRUE
"875","P13","3-back",3,5,"Y","non-target","non-target",564,TRUE
"876","P13","3-back",3,6,"Z","non-target","non-target",628,TRUE
"877","P13","3-back",3,7,"W","non-target","non-target",868,TRUE
"878","P13","3-back",3,8,"Y","target","target",452,TRUE
"879","P13","3-back",3,9,"Z","target","target",452,TRUE
"880","P13","3-back",3,10,"W","target","non-target",1116,FALSE
"881","P13","3-back",3,11,"B","non-target","non-target",700,TRUE
"882","P13","3-back",3,12,"Z","target","target",1420,TRUE
"883","P13","3-back",3,13,"Q","non-target","non-target",998,TRUE
"884","P13","3-back",3,14,"L","non-target","non-target",660,TRUE
"885","P13","3-back",3,15,"Z","target","target",1028,TRUE
"886","P13","3-back",3,16,"H","non-target","non-target",1611,TRUE
"887","P13","3-back",3,17,"V","non-target","non-target",779,TRUE
"888","P13","3-back",3,18,"Z","target","target",531,TRUE
"889","P13","3-back",3,19,"R","non-target","non-target",1563,TRUE
"890","P13","3-back",3,20,"T","non-target","non-target",827,TRUE
"891","P13","3-back",3,21,"F","non-target","non-target",1475,TRUE
"892","P13","3-back",3,22,"Y","non-target","non-target",1243,TRUE
"893","P13","3-back",3,23,"S","non-target","non-target",1427,TRUE
"894","P13","3-back",3,24,"F","target","target",595,TRUE
"895","P13","3-back",3,25,"Y","target","target",1235,TRUE
"896","P13","3-back",3,26,"G","non-target","non-target",691,TRUE
"897","P13","3-back",3,27,"T","non-target","non-target",859,TRUE
"898","P13","3-back",3,28,"L","non-target","non-target",1387,TRUE
"899","P13","3-back",3,29,"G","target","target",763,TRUE
"900","P13","3-back",3,30,"T","target","target",611,TRUE
"901","P14","2-back",1,1,"M","burn-in",,,
"902","P14","2-back",1,2,"K","burn-in",,,
"903","P14","2-back",1,3,"D","burn-in","non-target",840,TRUE
"904","P14","2-back",1,4,"K","target","target",832,TRUE
"905","P14","2-back",1,5,"D","target","target",1608,TRUE
"906","P14","2-back",1,6,"K","target","target",1880,TRUE
"907","P14","2-back",1,7,"Y","non-target","non-target",960,TRUE
"908","P14","2-back",1,8,"K","target","target",1736,TRUE
"909","P14","2-back",1,9,"Y","target","target",1344,TRUE
"910","P14","2-back",1,10,"K","target","target",1360,TRUE
"911","P14","2-back",1,11,"J","non-target","non-target",1120,TRUE
"912","P14","2-back",1,12,"V","non-target","non-target",1624,TRUE
"913","P14","2-back",1,13,"J","target","target",768,TRUE
"914","P14","2-back",1,14,"Q","non-target","non-target",1264,TRUE
"915","P14","2-back",1,15,"G","non-target","non-target",1024,TRUE
"916","P14","2-back",1,16,"N","non-target","non-target",1591,TRUE
"917","P14","2-back",1,17,"P","non-target","non-target",1343,TRUE
"918","P14","2-back",1,18,"N","target","target",687,TRUE
"919","P14","2-back",1,19,"P","target","target",1871,TRUE
"920","P14","2-back",1,20,"J","non-target",,,FALSE
"921","P14","2-back",1,21,"F","non-target",,,FALSE
"922","P14","2-back",1,22,"J","target","target",679,TRUE
"923","P14","2-back",1,23,"H","non-target","non-target",711,TRUE
"924","P14","2-back",1,24,"S","non-target","non-target",959,TRUE
"925","P14","2-back",1,25,"D","non-target","non-target",727,TRUE
"926","P14","2-back",1,26,"B","non-target","non-target",831,TRUE
"927","P14","2-back",1,27,"T","non-target","non-target",751,TRUE
"928","P14","2-back",1,28,"C","non-target","non-target",615,TRUE
"929","P14","2-back",1,29,"V","non-target","non-target",711,TRUE
"930","P14","2-back",1,30,"R","non-target","non-target",686,TRUE
"931","P14","2-back",2,1,"W","burn-in",,,
"932","P14","2-back",2,2,"Q","burn-in",,,
"933","P14","2-back",2,3,"Y","burn-in","non-target",735,TRUE
"934","P14","2-back",2,4,"K","non-target","non-target",879,TRUE
"935","P14","2-back",2,5,"L","non-target","non-target",1879,TRUE
"936","P14","2-back",2,6,"Z","non-target","non-target",663,TRUE
"937","P14","2-back",2,7,"L","target","target",1071,TRUE
"938","P14","2-back",2,8,"Z","target","target",1015,TRUE
"939","P14","2-back",2,9,"L","target","target",807,TRUE
"940","P14","2-back",2,10,"M","non-target","non-target",558,TRUE
"941","P14","2-back",2,11,"N","non-target","non-target",726,TRUE
"942","P14","2-back",2,12,"R","non-target","non-target",1006,TRUE
"943","P14","2-back",2,13,"N","target","target",542,TRUE
"944","P14","2-back",2,14,"H","non-target","non-target",646,TRUE
"945","P14","2-back",2,15,"Q","non-target","non-target",942,TRUE
"946","P14","2-back",2,16,"H","target","target",542,TRUE
"947","P14","2-back",2,17,"W","non-target","non-target",590,TRUE
"948","P14","2-back",2,18,"K","non-target","non-target",1350,TRUE
"949","P14","2-back",2,19,"D","non-target","non-target",894,TRUE
"950","P14","2-back",2,20,"K","target","target",1174,TRUE
"951","P14","2-back",2,21,"D","target","target",1614,TRUE
"952","P14","2-back",2,22,"G","non-target","non-target",814,TRUE
"953","P14","2-back",2,23,"D","target","target",686,TRUE
"954","P14","2-back",2,24,"G","target","target",757,TRUE
"955","P14","2-back",2,25,"L","non-target","non-target",725,TRUE
"956","P14","2-back",2,26,"V","non-target","non-target",717,TRUE
"957","P14","2-back",2,27,"F","non-target","non-target",781,TRUE
"958","P14","2-back",2,28,"V","target","target",614,TRUE
"959","P14","2-back",2,29,"Y","non-target","non-target",926,TRUE
"960","P14","2-back",2,30,"C","non-target","non-target",766,TRUE
"961","P14","2-back",3,1,"S","burn-in",,,
"962","P14","2-back",3,2,"M","burn-in",,,
"963","P14","2-back",3,3,"T","burn-in","non-target",622,TRUE
"964","P14","2-back",3,4,"Z","non-target","non-target",694,TRUE
"965","P14","2-back",3,5,"B","non-target","non-target",773,TRUE
"966","P14","2-back",3,6,"Z","target","target",725,TRUE
"967","P14","2-back",3,7,"J","non-target","non-target",613,TRUE
"968","P14","2-back",3,8,"Z","target","target",653,TRUE
"969","P14","2-back",3,9,"P","non-target","non-target",589,TRUE
"970","P14","2-back",3,10,"W","non-target","non-target",3141,TRUE
"971","P14","2-back",3,11,"K","non-target","non-target",1157,TRUE
"972","P14","2-back",3,12,"B","non-target","non-target",701,TRUE
"973","P14","2-back",3,13,"D","non-target","non-target",797,TRUE
"974","P14","2-back",3,14,"L","non-target","non-target",653,TRUE
"975","P14","2-back",3,15,"S","non-target","non-target",541,TRUE
"976","P14","2-back",3,16,"V","non-target","non-target",661,TRUE
"977","P14","2-back",3,17,"T","non-target","non-target",741,TRUE
"978","P14","2-back",3,18,"V","target","target",364,TRUE
"979","P14","2-back",3,19,"H","non-target","non-target",540,TRUE
"980","P14","2-back",3,20,"G","non-target","non-target",644,TRUE
"981","P14","2-back",3,21,"Y","non-target","non-target",836,TRUE
"982","P14","2-back",3,22,"G","target","target",700,TRUE
"983","P14","2-back",3,23,"Y","target","target",748,TRUE
"984","P14","2-back",3,24,"J","non-target","non-target",869,TRUE
"985","P14","2-back",3,25,"Y","target","target",837,TRUE
"986","P14","2-back",3,26,"J","target","target",605,TRUE
"987","P14","2-back",3,27,"Y","target","target",749,TRUE
"988","P14","2-back",3,28,"J","target","target",469,TRUE
"989","P14","2-back",3,29,"N","non-target","non-target",549,TRUE
"990","P14","2-back",3,30,"J","target","non-target",461,FALSE
"991","P14","3-back",1,1,"Z","burn-in",,,
"992","P14","3-back",1,2,"H","burn-in",,,
"993","P14","3-back",1,3,"P","burn-in",,,
"994","P14","3-back",1,4,"D","non-target","non-target",1040,TRUE
"995","P14","3-back",1,5,"R","non-target","non-target",1743,TRUE
"996","P14","3-back",1,6,"W","non-target","non-target",1552,TRUE
"997","P14","3-back",1,7,"V","non-target","target",2536,FALSE
"998","P14","3-back",1,8,"S","non-target","non-target",1848,TRUE
"999","P14","3-back",1,9,"W","target","target",1280,TRUE
"1000","P14","3-back",1,10,"B","non-target","non-target",896,TRUE
"1001","P14","3-back",1,11,"S","target","target",1040,TRUE
"1002","P14","3-back",1,12,"L","non-target","non-target",1192,TRUE
"1003","P14","3-back",1,13,"N","non-target","target",888,FALSE
"1004","P14","3-back",1,14,"F","non-target","non-target",1456,TRUE
"1005","P14","3-back",1,15,"Q","non-target","non-target",1248,TRUE
"1006","P14","3-back",1,16,"C","non-target","non-target",1384,TRUE
"1007","P14","3-back",1,17,"F","target","target",1328,TRUE
"1008","P14","3-back",1,18,"M","non-target","non-target",1047,TRUE
"1009","P14","3-back",1,19,"C","target","target",1343,TRUE
"1010","P14","3-back",1,20,"F","target","target",1175,TRUE
"1011","P14","3-back",1,21,"M","target","target",807,TRUE
"1012","P14","3-back",1,22,"C","target","target",1239,TRUE
"1013","P14","3-back",1,23,"R","non-target","non-target",1015,TRUE
"1014","P14","3-back",1,24,"M","target","target",815,TRUE
"1015","P14","3-back",1,25,"C","target","target",1165,TRUE
"1016","P14","3-back",1,26,"Y","non-target","non-target",1159,TRUE
"1017","P14","3-back",1,27,"S","non-target","non-target",1503,TRUE
"1018","P14","3-back",1,28,"P","non-target","non-target",1191,TRUE
"1019","P14","3-back",1,29,"F","non-target","non-target",1671,TRUE
"1020","P14","3-back",1,30,"S","target","target",1335,TRUE
"1021","P14","3-back",2,1,"D","burn-in",,,
"1022","P14","3-back",2,2,"K","burn-in",,,
"1023","P14","3-back",2,3,"G","burn-in",,,
"1024","P14","3-back",2,4,"D","target","target",1511,TRUE
"1025","P14","3-back",2,5,"H","non-target","non-target",1367,TRUE
"1026","P14","3-back",2,6,"G","target","target",1983,TRUE
"1027","P14","3-back",2,7,"N","non-target","non-target",1479,TRUE
"1028","P14","3-back",2,8,"L","non-target","non-target",1967,TRUE
"1029","P14","3-back",2,9,"G","target","target",1015,TRUE
"1030","P14","3-back",2,10,"N","target","target",1183,TRUE
"1031","P14","3-back",2,11,"Z","non-target","non-target",822,TRUE
"1032","P14","3-back",2,12,"W","non-target","non-target",862,TRUE
"1033","P14","3-back",2,13,"T","non-target","non-target",1014,TRUE
"1034","P14","3-back",2,14,"Z","target","target",1014,TRUE
"1035","P14","3-back",2,15,"V","non-target","non-target",966,TRUE
"1036","P14","3-back",2,16,"C","non-target","non-target",838,TRUE
"1037","P14","3-back",2,17,"Z","target","target",1510,TRUE
"1038","P14","3-back",2,18,"B","non-target","non-target",1054,TRUE
"1039","P14","3-back",2,19,"C","target","non-target",1462,FALSE
"1040","P14","3-back",2,20,"Q","non-target","non-target",1126,TRUE
"1041","P14","3-back",2,21,"B","target","target",846,TRUE
"1042","P14","3-back",2,22,"J","non-target","non-target",790,TRUE
"1043","P14","3-back",2,23,"Q","target","target",1046,TRUE
"1044","P14","3-back",2,24,"F","non-target","non-target",1830,TRUE
"1045","P14","3-back",2,25,"H","non-target","non-target",877,TRUE
"1046","P14","3-back",2,26,"V","non-target","non-target",1517,TRUE
"1047","P14","3-back",2,27,"D","non-target","non-target",2213,TRUE
"1048","P14","3-back",2,28,"H","target","target",765,TRUE
"1049","P14","3-back",2,29,"S","non-target","non-target",734,TRUE
"1050","P14","3-back",2,30,"K","non-target","non-target",966,TRUE
"1051","P14","3-back",3,1,"T","burn-in",,,
"1052","P14","3-back",3,2,"W","burn-in",,,
"1053","P14","3-back",3,3,"J","burn-in",,,
"1054","P14","3-back",3,4,"T","target","target",838,TRUE
"1055","P14","3-back",3,5,"B","non-target","non-target",798,TRUE
"1056","P14","3-back",3,6,"M","non-target","non-target",1533,TRUE
"1057","P14","3-back",3,7,"Q","non-target","non-target",1413,TRUE
"1058","P14","3-back",3,8,"C","non-target","non-target",909,TRUE
"1059","P14","3-back",3,9,"N","non-target","non-target",949,TRUE
"1060","P14","3-back",3,10,"Z","non-target","non-target",1477,TRUE
"1061","P14","3-back",3,11,"C","target","target",669,TRUE
"1062","P14","3-back",3,12,"N","target","target",1325,TRUE
"1063","P14","3-back",3,13,"Z","target","target",1117,TRUE
"1064","P14","3-back",3,14,"C","target","target",1340,TRUE
"1065","P14","3-back",3,15,"P","non-target","non-target",861,TRUE
"1066","P14","3-back",3,16,"R","non-target","non-target",869,TRUE
"1067","P14","3-back",3,17,"L","non-target","non-target",1429,TRUE
"1068","P14","3-back",3,18,"P","target","target",1135,TRUE
"1069","P14","3-back",3,19,"Y","non-target","non-target",717,TRUE
"1070","P14","3-back",3,20,"G","non-target","non-target",1061,TRUE
"1071","P14","3-back",3,21,"R","non-target","non-target",876,TRUE
"1072","P14","3-back",3,22,"Q","non-target","non-target",700,TRUE
"1073","P14","3-back",3,23,"C","non-target","non-target",1020,TRUE
"1074","P14","3-back",3,24,"R","target","target",886,TRUE
"1075","P14","3-back",3,25,"G","non-target","non-target",1764,TRUE
"1076","P14","3-back",3,26,"M","non-target","non-target",1156,TRUE
"1077","P14","3-back",3,27,"R","target","target",853,TRUE
"1078","P14","3-back",3,28,"S","non-target","non-target",781,TRUE
"1079","P14","3-back",3,29,"M","target","target",533,TRUE
"1080","P14","3-back",3,30,"R","target","target",1069,TRUE
"1081","P15","2-back",1,1,"B","burn-in","non-target",433,TRUE
"1082","P15","2-back",1,2,"F","burn-in","non-target",408,TRUE
"1083","P15","2-back",1,3,"M","burn-in","non-target",504,TRUE
"1084","P15","2-back",1,4,"L","non-target","non-target",624,TRUE
"1085","P15","2-back",1,5,"J","non-target","non-target",961,TRUE
"1086","P15","2-back",1,6,"L","target","target",353,TRUE
"1087","P15","2-back",1,7,"J","target","target",305,TRUE
"1088","P15","2-back",1,8,"S","non-target","non-target",553,TRUE
"1089","P15","2-back",1,9,"J","target","target",513,TRUE
"1090","P15","2-back",1,10,"Z","non-target","non-target",457,TRUE
"1091","P15","2-back",1,11,"J","target","target",385,TRUE
"1092","P15","2-back",1,12,"G","non-target","non-target",417,TRUE
"1093","P15","2-back",1,13,"J","target","target",537,TRUE
"1094","P15","2-back",1,14,"G","target","target",513,TRUE
"1095","P15","2-back",1,15,"J","target","target",521,TRUE
"1096","P15","2-back",1,16,"J","non-target","non-target",737,TRUE
"1097","P15","2-back",1,17,"Z","non-target","non-target",561,TRUE
"1098","P15","2-back",1,18,"N","non-target","non-target",944,TRUE
"1099","P15","2-back",1,19,"D","non-target","non-target",552,TRUE
"1100","P15","2-back",1,20,"Y","non-target","non-target",536,TRUE
"1101","P15","2-back",1,21,"R","non-target","non-target",560,TRUE
"1102","P15","2-back",1,22,"L","non-target","non-target",440,TRUE
"1103","P15","2-back",1,23,"R","target","target",552,TRUE
"1104","P15","2-back",1,24,"L","target","target",472,TRUE
"1105","P15","2-back",1,25,"B","non-target","non-target",456,TRUE
"1106","P15","2-back",1,26,"K","non-target","non-target",416,TRUE
"1107","P15","2-back",1,27,"Q","non-target","non-target",360,TRUE
"1108","P15","2-back",1,28,"C","non-target","non-target",408,TRUE
"1109","P15","2-back",1,29,"M","non-target","non-target",440,TRUE
"1110","P15","2-back",1,30,"C","target","target",296,TRUE
"1111","P15","2-back",2,1,"W","burn-in","non-target",516,TRUE
"1112","P15","2-back",2,2,"H","burn-in","non-target",380,TRUE
"1113","P15","2-back",2,3,"P","burn-in","non-target",428,TRUE
"1114","P15","2-back",2,4,"F","non-target","non-target",452,TRUE
"1115","P15","2-back",2,5,"P","target","target",620,TRUE
"1116","P15","2-back",2,6,"V","non-target","non-target",404,TRUE
"1117","P15","2-back",2,7,"P","target","target",324,TRUE
"1118","P15","2-back",2,8,"V","target","target",548,TRUE
"1119","P15","2-back",2,9,"T","non-target","non-target",468,TRUE
"1120","P15","2-back",2,10,"S","non-target","non-target",436,TRUE
"1121","P15","2-back",2,11,"H","non-target","non-target",388,TRUE
"1122","P15","2-back",2,12,"S","non-target","target",404,FALSE
"1123","P15","2-back",2,13,"H","target","target",340,TRUE
"1124","P15","2-back",2,14,"D","non-target","non-target",404,TRUE
"1125","P15","2-back",2,15,"G","non-target","non-target",428,TRUE
"1126","P15","2-back",2,16,"P","non-target","non-target",388,TRUE
"1127","P15","2-back",2,17,"Q","non-target","non-target",444,TRUE
"1128","P15","2-back",2,18,"P","target","target",460,TRUE
"1129","P15","2-back",2,19,"Q","target","target",333,TRUE
"1130","P15","2-back",2,20,"P","target","target",340,TRUE
"1131","P15","2-back",2,21,"Q","target","target",308,TRUE
"1132","P15","2-back",2,22,"Z","non-target","non-target",436,TRUE
"1133","P15","2-back",2,23,"Q","target","target",492,TRUE
"1134","P15","2-back",2,24,"C","non-target","non-target",404,TRUE
"1135","P15","2-back",2,25,"M","non-target","non-target",484,TRUE
"1136","P15","2-back",2,26,"C","target","target",324,TRUE
"1137","P15","2-back",2,27,"B","non-target","non-target",476,TRUE
"1138","P15","2-back",2,28,"F","non-target","non-target",444,TRUE
"1139","P15","2-back",2,29,"K","non-target","non-target",428,TRUE
"1140","P15","2-back",2,30,"Y","non-target","non-target",388,TRUE
"1141","P15","2-back",3,1,"W","burn-in","non-target",541,TRUE
"1142","P15","2-back",3,2,"T","burn-in","non-target",413,TRUE
"1143","P15","2-back",3,3,"J","burn-in","non-target",742,TRUE
"1144","P15","2-back",3,4,"V","non-target","non-target",597,TRUE
"1145","P15","2-back",3,5,"J","target","target",486,TRUE
"1146","P15","2-back",3,6,"L","non-target","non-target",486,TRUE
"1147","P15","2-back",3,7,"J","target","target",486,TRUE
"1148","P15","2-back",3,8,"R","non-target","non-target",542,TRUE
"1149","P15","2-back",3,9,"N","non-target","non-target",534,TRUE
"1150","P15","2-back",3,10,"F","non-target","non-target",526,TRUE
"1151","P15","2-back",3,11,"N","target","target",446,TRUE
"1152","P15","2-back",3,12,"F","target","target",574,TRUE
"1153","P15","2-back",3,13,"N","non-target","target",334,FALSE
"1154","P15","2-back",3,14,"G","non-target","non-target",574,TRUE
"1155","P15","2-back",3,15,"B","non-target","non-target",542,TRUE
"1156","P15","2-back",3,16,"H","non-target","non-target",534,TRUE
"1157","P15","2-back",3,17,"P","non-target","non-target",854,TRUE
"1158","P15","2-back",3,18,"H","target","target",542,TRUE
"1159","P15","2-back",3,19,"P","target","target",366,TRUE
"1160","P15","2-back",3,20,"H","target","target",398,TRUE
"1161","P15","2-back",3,21,"L","non-target","non-target",493,TRUE
"1162","P15","2-back",3,22,"H","target","target",341,TRUE
"1163","P15","2-back",3,23,"C","non-target","non-target",485,TRUE
"1164","P15","2-back",3,24,"H","target","target",661,TRUE
"1165","P15","2-back",3,25,"C","target","target",397,TRUE
"1166","P15","2-back",3,26,"M","non-target","non-target",565,TRUE
"1167","P15","2-back",3,27,"K","non-target","non-target",485,TRUE
"1168","P15","2-back",3,28,"Q","non-target","non-target",485,TRUE
"1169","P15","2-back",3,29,"J","non-target","non-target",461,TRUE
"1170","P15","2-back",3,30,"Z","non-target","non-target",477,TRUE
"1171","P15","3-back",1,1,"F","burn-in","non-target",817,TRUE
"1172","P15","3-back",1,2,"W","burn-in","non-target",428,TRUE
"1173","P15","3-back",1,3,"P","burn-in","non-target",497,TRUE
"1174","P15","3-back",1,4,"F","target","target",553,TRUE
"1175","P15","3-back",1,5,"W","target","target",537,TRUE
"1176","P15","3-back",1,6,"B","non-target","non-target",505,TRUE
"1177","P15","3-back",1,7,"N","non-target","non-target",649,TRUE
"1178","P15","3-back",1,8,"V","non-target","non-target",441,TRUE
"1179","P15","3-back",1,9,"B","target","target",417,TRUE
"1180","P15","3-back",1,10,"N","target","target",521,TRUE
"1181","P15","3-back",1,11,"Z","non-target","non-target",481,TRUE
"1182","P15","3-back",1,12,"Q","non-target","non-target",465,TRUE
"1183","P15","3-back",1,13,"C","non-target","non-target",569,TRUE
"1184","P15","3-back",1,14,"Z","target","target",857,TRUE
"1185","P15","3-back",1,15,"R","non-target","non-target",456,TRUE
"1186","P15","3-back",1,16,"Y","non-target","non-target",456,TRUE
"1187","P15","3-back",1,17,"J","non-target","non-target",608,TRUE
"1188","P15","3-back",1,18,"R","target","target",656,TRUE
"1189","P15","3-back",1,19,"S","non-target","non-target",448,TRUE
"1190","P15","3-back",1,20,"K","non-target","non-target",504,TRUE
"1191","P15","3-back",1,21,"M","non-target","non-target",464,TRUE
"1192","P15","3-back",1,22,"S","target","target",456,TRUE
"1193","P15","3-back",1,23,"R","non-target","non-target",440,TRUE
"1194","P15","3-back",1,24,"M","target","target",392,TRUE
"1195","P15","3-back",1,25,"S","target","target",424,TRUE
"1196","P15","3-back",1,26,"S","non-target","non-target",664,TRUE
"1197","P15","3-back",1,27,"F","non-target","non-target",576,TRUE
"1198","P15","3-back",1,28,"H","non-target","non-target",624,TRUE
"1199","P15","3-back",1,29,"W","non-target","non-target",984,TRUE
"1200","P15","3-back",1,30,"F","target","non-target",568,FALSE
"1201","P15","3-back",2,1,"G","burn-in","non-target",412,TRUE
"1202","P15","3-back",2,2,"C","burn-in","non-target",492,TRUE
"1203","P15","3-back",2,3,"J","burn-in","non-target",572,TRUE
"1204","P15","3-back",2,4,"V","non-target","non-target",428,TRUE
"1205","P15","3-back",2,5,"C","target","target",548,TRUE
"1206","P15","3-back",2,6,"K","non-target","non-target",492,TRUE
"1207","P15","3-back",2,7,"D","non-target","non-target",484,TRUE
"1208","P15","3-back",2,8,"Y","non-target","non-target",556,TRUE
"1209","P15","3-back",2,9,"K","target","target",412,TRUE
"1210","P15","3-back",2,10,"D","target","target",485,TRUE
"1211","P15","3-back",2,11,"Y","target","target",768,TRUE
"1212","P15","3-back",2,12,"Z","non-target","non-target",437,TRUE
"1213","P15","3-back",2,13,"D","target","target",431,TRUE
"1214","P15","3-back",2,14,"Y","target","target",421,TRUE
"1215","P15","3-back",2,15,"B","non-target","non-target",413,TRUE
"1216","P15","3-back",2,16,"P","non-target","non-target",525,TRUE
"1217","P15","3-back",2,17,"Y","target","target",421,TRUE
"1218","P15","3-back",2,18,"T","non-target","non-target",365,TRUE
"1219","P15","3-back",2,19,"Q","non-target","non-target",388,TRUE
"1220","P15","3-back",2,20,"L","non-target","non-target",476,TRUE
"1221","P15","3-back",2,21,"N","non-target","non-target",508,TRUE
"1222","P15","3-back",2,22,"Q","target","target",332,TRUE
"1223","P15","3-back",2,23,"N","non-target","non-target",900,TRUE
"1224","P15","3-back",2,24,"N","target","target",604,TRUE
"1225","P15","3-back",2,25,"Q","non-target","target",436,FALSE
"1226","P15","3-back",2,26,"L","non-target","non-target",468,TRUE
"1227","P15","3-back",2,27,"K","non-target","non-target",668,TRUE
"1228","P15","3-back",2,28,"S","non-target","non-target",732,TRUE
"1229","P15","3-back",2,29,"L","target","target",580,TRUE
"1230","P15","3-back",2,30,"B","non-target","non-target",444,TRUE
"1231","P15","3-back",3,1,"C","burn-in","non-target",588,TRUE
"1232","P15","3-back",3,2,"J","burn-in","non-target",332,TRUE
"1233","P15","3-back",3,3,"W","burn-in","non-target",356,TRUE
"1234","P15","3-back",3,4,"C","target","target",412,TRUE
"1235","P15","3-back",3,5,"P","non-target","non-target",452,TRUE
"1236","P15","3-back",3,6,"Z","non-target","non-target",451,TRUE
"1237","P15","3-back",3,7,"C","target","target",507,TRUE
"1238","P15","3-back",3,8,"M","non-target","non-target",499,TRUE
"1239","P15","3-back",3,9,"G","non-target","non-target",651,TRUE
"1240","P15","3-back",3,10,"C","target","non-target",427,FALSE
"1241","P15","3-back",3,11,"M","target","target",531,TRUE
"1242","P15","3-back",3,12,"T","non-target","non-target",435,TRUE
"1243","P15","3-back",3,13,"R","non-target","non-target",523,TRUE
"1244","P15","3-back",3,14,"M","target","target",475,TRUE
"1245","P15","3-back",3,15,"T","target","target",467,TRUE
"1246","P15","3-back",3,16,"R","target","target",427,TRUE
"1247","P15","3-back",3,17,"M","target","target",371,TRUE
"1248","P15","3-back",3,18,"F","non-target","non-target",491,TRUE
"1249","P15","3-back",3,19,"V","non-target","non-target",523,TRUE
"1250","P15","3-back",3,20,"M","target","target",387,TRUE
"1251","P15","3-back",3,21,"D","non-target","non-target",539,TRUE
"1252","P15","3-back",3,22,"Y","non-target","non-target",915,TRUE
"1253","P15","3-back",3,23,"H","non-target","non-target",531,TRUE
"1254","P15","3-back",3,24,"J","non-target","non-target",474,TRUE
"1255","P15","3-back",3,25,"K","non-target","non-target",482,TRUE
"1256","P15","3-back",3,26,"W","non-target","non-target",500,TRUE
"1257","P15","3-back",3,27,"S","non-target","non-target",490,TRUE
"1258","P15","3-back",3,28,"K","target","target",378,TRUE
"1259","P15","3-back",3,29,"Y","non-target","non-target",546,TRUE
"1260","P15","3-back",3,30,"L","non-target","non-target",778,TRUE
"1261","P16","2-back",1,1,"W","burn-in","non-target",589,TRUE
"1262","P16","2-back",1,2,"H","burn-in","non-target",413,TRUE
"1263","P16","2-back",1,3,"B","burn-in","non-target",389,TRUE
"1264","P16","2-back",1,4,"H","target","target",350,TRUE
"1265","P16","2-back",1,5,"P","non-target","non-target",421,TRUE
"1266","P16","2-back",1,6,"V","non-target","non-target",397,TRUE
"1267","P16","2-back",1,7,"P","target","target",349,TRUE
"1268","P16","2-back",1,8,"V","target","target",325,TRUE
"1269","P16","2-back",1,9,"Z","non-target","non-target",453,TRUE
"1270","P16","2-back",1,10,"V","target","target",428,TRUE
"1271","P16","2-back",1,11,"Z","target","target",340,TRUE
"1272","P16","2-back",1,12,"G","non-target","non-target",620,TRUE
"1273","P16","2-back",1,13,"J","non-target","non-target",460,TRUE
"1274","P16","2-back",1,14,"Q","non-target","non-target",468,TRUE
"1275","P16","2-back",1,15,"P","non-target","non-target",380,TRUE
"1276","P16","2-back",1,16,"T","non-target","non-target",788,TRUE
"1277","P16","2-back",1,17,"S","non-target","non-target",548,TRUE
"1278","P16","2-back",1,18,"T","target","target",365,TRUE
"1279","P16","2-back",1,19,"S","target","target",525,TRUE
"1280","P16","2-back",1,20,"K","non-target","non-target",364,TRUE
"1281","P16","2-back",1,21,"B","non-target","non-target",388,TRUE
"1282","P16","2-back",1,22,"K","target","target",340,TRUE
"1283","P16","2-back",1,23,"N","non-target","non-target",660,TRUE
"1284","P16","2-back",1,24,"G","non-target","non-target",556,TRUE
"1285","P16","2-back",1,25,"C","non-target","non-target",404,TRUE
"1286","P16","2-back",1,26,"R","non-target","non-target",356,TRUE
"1287","P16","2-back",1,27,"F","non-target","non-target",380,TRUE
"1288","P16","2-back",1,28,"R","target","target",300,TRUE
"1289","P16","2-back",1,29,"V","non-target","non-target",340,TRUE
"1290","P16","2-back",1,30,"R","target","target",348,TRUE
"1291","P16","2-back",2,1,"D","burn-in","non-target",726,TRUE
"1292","P16","2-back",2,2,"Z","burn-in","non-target",382,TRUE
"1293","P16","2-back",2,3,"H","burn-in","non-target",382,TRUE
"1294","P16","2-back",2,4,"Z","target","target",478,TRUE
"1295","P16","2-back",2,5,"M","non-target","non-target",366,TRUE
"1296","P16","2-back",2,6,"L","non-target","non-target",414,TRUE
"1297","P16","2-back",2,7,"M","target","target",366,TRUE
"1298","P16","2-back",2,8,"Y","non-target","non-target",342,TRUE
"1299","P16","2-back",2,9,"W","non-target","non-target",534,TRUE
"1300","P16","2-back",2,10,"Z","non-target","non-target",758,TRUE
"1301","P16","2-back",2,11,"W","target","target",342,TRUE
"1302","P16","2-back",2,12,"Z","target","target",334,TRUE
"1303","P16","2-back",2,13,"P","non-target","non-target",373,TRUE
"1304","P16","2-back",2,14,"J","non-target","non-target",373,TRUE
"1305","P16","2-back",2,15,"P","target","target",357,TRUE
"1306","P16","2-back",2,16,"S","non-target","non-target",365,TRUE
"1307","P16","2-back",2,17,"N","non-target","non-target",413,TRUE
"1308","P16","2-back",2,18,"V","non-target","non-target",389,TRUE
"1309","P16","2-back",2,19,"C","non-target","non-target",357,TRUE
"1310","P16","2-back",2,20,"D","non-target","non-target",357,TRUE
"1311","P16","2-back",2,21,"C","target","target",302,TRUE
"1312","P16","2-back",2,22,"L","non-target","non-target",486,TRUE
"1313","P16","2-back",2,23,"T","non-target","non-target",438,TRUE
"1314","P16","2-back",2,24,"Y","non-target","non-target",533,TRUE
"1315","P16","2-back",2,25,"T","target","target",293,TRUE
"1316","P16","2-back",2,26,"Y","target","target",317,TRUE
"1317","P16","2-back",2,27,"T","target","target",341,TRUE
"1318","P16","2-back",2,28,"Y","target","target",453,TRUE
"1319","P16","2-back",2,29,"R","non-target","non-target",413,TRUE
"1320","P16","2-back",2,30,"W","non-target","non-target",397,TRUE
"1321","P16","2-back",3,1,"K","burn-in","non-target",472,TRUE
"1322","P16","2-back",3,2,"F","burn-in","non-target",495,TRUE
"1323","P16","2-back",3,3,"G","burn-in","non-target",471,TRUE
"1324","P16","2-back",3,4,"B","non-target","non-target",439,TRUE
"1325","P16","2-back",3,5,"H","non-target","non-target",407,TRUE
"1326","P16","2-back",3,6,"Q","non-target","non-target",383,TRUE
"1327","P16","2-back",3,7,"H","target","target",319,TRUE
"1328","P16","2-back",3,8,"M","non-target","non-target",391,TRUE
"1329","P16","2-back",3,9,"T","non-target","non-target",399,TRUE
"1330","P16","2-back",3,10,"M","target","target",607,TRUE
"1331","P16","2-back",3,11,"P","non-target","non-target",359,TRUE
"1332","P16","2-back",3,12,"M","target","target",479,TRUE
"1333","P16","2-back",3,13,"P","target","target",367,TRUE
"1334","P16","2-back",3,14,"Y","non-target","non-target",367,TRUE
"1335","P16","2-back",3,15,"K","non-target","non-target",463,TRUE
"1336","P16","2-back",3,16,"Y","target","target",695,TRUE
"1337","P16","2-back",3,17,"K","target","target",359,TRUE
"1338","P16","2-back",3,18,"Y","target","target",359,TRUE
"1339","P16","2-back",3,19,"Q","non-target","non-target",383,TRUE
"1340","P16","2-back",3,20,"D","non-target","non-target",423,TRUE
"1341","P16","2-back",3,21,"R","non-target","non-target",471,TRUE
"1342","P16","2-back",3,22,"D","target","target",615,TRUE
"1343","P16","2-back",3,23,"B","non-target","non-target",366,TRUE
"1344","P16","2-back",3,24,"H","non-target","non-target",390,TRUE
"1345","P16","2-back",3,25,"M","non-target","target",518,FALSE
"1346","P16","2-back",3,26,"H","target","target",550,TRUE
"1347","P16","2-back",3,27,"M","target","target",478,TRUE
"1348","P16","2-back",3,28,"J","non-target","non-target",470,TRUE
"1349","P16","2-back",3,29,"S","non-target","non-target",638,TRUE
"1350","P16","2-back",3,30,"N","non-target","non-target",390,TRUE
"1351","P16","3-back",1,1,"F","burn-in","non-target",815,TRUE
"1352","P16","3-back",1,2,"H","burn-in","non-target",655,TRUE
"1353","P16","3-back",1,3,"G","burn-in","non-target",431,TRUE
"1354","P16","3-back",1,4,"K","non-target","non-target",495,TRUE
"1355","P16","3-back",1,5,"H","target","target",678,TRUE
"1356","P16","3-back",1,6,"G","target","target",1374,TRUE
"1357","P16","3-back",1,7,"S","non-target","non-target",1134,TRUE
"1358","P16","3-back",1,8,"W","non-target","non-target",470,TRUE
"1359","P16","3-back",1,9,"V","non-target","non-target",551,TRUE
"1360","P16","3-back",1,10,"Z","non-target","non-target",479,TRUE
"1361","P16","3-back",1,11,"W","target","target",327,TRUE
"1362","P16","3-back",1,12,"V","target","target",367,TRUE
"1363","P16","3-back",1,13,"L","non-target","non-target",463,TRUE
"1364","P16","3-back",1,14,"N","non-target","non-target",415,TRUE
"1365","P16","3-back",1,15,"M","non-target","non-target",471,TRUE
"1366","P16","3-back",1,16,"L","target","non-target",438,FALSE
"1367","P16","3-back",1,17,"J","non-target","non-target",719,TRUE
"1368","P16","3-back",1,18,"Y","non-target","non-target",686,TRUE
"1369","P16","3-back",1,19,"P","non-target","non-target",534,TRUE
"1370","P16","3-back",1,20,"J","target","target",310,TRUE
"1371","P16","3-back",1,21,"C","non-target","non-target",478,TRUE
"1372","P16","3-back",1,22,"T","non-target","non-target",526,TRUE
"1373","P16","3-back",1,23,"F","non-target","non-target",542,TRUE
"1374","P16","3-back",1,24,"V","non-target","non-target",630,TRUE
"1375","P16","3-back",1,25,"T","target","target",390,TRUE
"1376","P16","3-back",1,26,"W","non-target","non-target",1365,TRUE
"1377","P16","3-back",1,27,"V","target","non-target",1309,FALSE
"1378","P16","3-back",1,28,"T","target","non-target",590,FALSE
"1379","P16","3-back",1,29,"Z","non-target","non-target",942,TRUE
"1380","P16","3-back",1,30,"V","target","target",502,TRUE
"1381","P16","3-back",2,1,"N","burn-in","non-target",462,TRUE
"1382","P16","3-back",2,2,"P","burn-in","non-target",422,TRUE
"1383","P16","3-back",2,3,"M","burn-in","non-target",390,TRUE
"1384","P16","3-back",2,4,"J","non-target","non-target",717,TRUE
"1385","P16","3-back",2,5,"L","non-target","non-target",717,TRUE
"1386","P16","3-back",2,6,"Y","non-target","non-target",677,TRUE
"1387","P16","3-back",2,7,"R","non-target","non-target",589,TRUE
"1388","P16","3-back",2,8,"B","non-target","non-target",493,TRUE
"1389","P16","3-back",2,9,"Q","non-target","non-target",453,TRUE
"1390","P16","3-back",2,10,"H","non-target","non-target",493,TRUE
"1391","P16","3-back",2,11,"K","non-target","non-target",541,TRUE
"1392","P16","3-back",2,12,"Q","target","target",1061,TRUE
"1393","P16","3-back",2,13,"G","non-target","non-target",782,TRUE
"1394","P16","3-back",2,14,"D","non-target","non-target",734,TRUE
"1395","P16","3-back",2,15,"S","non-target","non-target",461,TRUE
"1396","P16","3-back",2,16,"G","target","non-target",557,FALSE
"1397","P16","3-back",2,17,"D","target","target",621,TRUE
"1398","P16","3-back",2,18,"S","non-target","target",445,FALSE
"1399","P16","3-back",2,19,"G","target","non-target",2053,FALSE
"1400","P16","3-back",2,20,"L","non-target","non-target",981,TRUE
"1401","P16","3-back",2,21,"Y","non-target","non-target",437,TRUE
"1402","P16","3-back",2,22,"G","target","target",373,TRUE
"1403","P16","3-back",2,23,"L","target","target",1165,TRUE
"1404","P16","3-back",2,24,"Y","target","target",885,TRUE
"1405","P16","3-back",2,25,"Z","non-target","non-target",725,TRUE
"1406","P16","3-back",2,26,"N","non-target","non-target",860,TRUE
"1407","P16","3-back",2,27,"H","non-target","non-target",484,TRUE
"1408","P16","3-back",2,28,"Z","target","target",364,TRUE
"1409","P16","3-back",2,29,"N","target","target",1868,TRUE
"1410","P16","3-back",2,30,"H","target","target",732,TRUE
"1411","P16","3-back",3,1,"F","burn-in","non-target",463,TRUE
"1412","P16","3-back",3,2,"R","burn-in","non-target",615,TRUE
"1413","P16","3-back",3,3,"J","burn-in","non-target",375,TRUE
"1414","P16","3-back",3,4,"F","target","target",599,TRUE
"1415","P16","3-back",3,5,"G","non-target","non-target",1998,TRUE
"1416","P16","3-back",3,6,"K","non-target","non-target",2727,TRUE
"1417","P16","3-back",3,7,"T","non-target","non-target",1191,TRUE
"1418","P16","3-back",3,8,"G","target","target",591,TRUE
"1419","P16","3-back",3,9,"W","non-target","non-target",679,TRUE
"1420","P16","3-back",3,10,"T","target","target",423,TRUE
"1421","P16","3-back",3,11,"P","non-target","non-target",759,TRUE
"1422","P16","3-back",3,12,"M","non-target","non-target",591,TRUE
"1423","P16","3-back",3,13,"B","non-target","non-target",471,TRUE
"1424","P16","3-back",3,14,"V","non-target","non-target",615,TRUE
"1425","P16","3-back",3,15,"M","target","target",471,TRUE
"1426","P16","3-back",3,16,"Q","non-target","non-target",470,TRUE
"1427","P16","3-back",3,17,"C","non-target","non-target",414,TRUE
"1428","P16","3-back",3,18,"M","target","target",374,TRUE
"1429","P16","3-back",3,19,"D","non-target","non-target",574,TRUE
"1430","P16","3-back",3,20,"C","target","target",374,TRUE
"1431","P16","3-back",3,21,"W","non-target","non-target",462,TRUE
"1432","P16","3-back",3,22,"D","target","target",374,TRUE
"1433","P16","3-back",3,23,"K","non-target","non-target",438,TRUE
"1434","P16","3-back",3,24,"Y","non-target","non-target",487,TRUE
"1435","P16","3-back",3,25,"D","target","target",471,TRUE
"1436","P16","3-back",3,26,"D","non-target","non-target",646,TRUE
"1437","P16","3-back",3,27,"R","non-target","non-target",758,TRUE
"1438","P16","3-back",3,28,"D","target","target",334,TRUE
"1439","P16","3-back",3,29,"D","target","target",342,TRUE
"1440","P16","3-back",3,30,"B","non-target","non-target",454,TRUE
"1441","P17","2-back",1,1,"Q","burn-in","non-target",345,TRUE
"1442","P17","2-back",1,2,"N","burn-in","non-target",265,TRUE
"1443","P17","2-back",1,3,"H","burn-in","non-target",274,TRUE
"1444","P17","2-back",1,4,"B","non-target","non-target",354,TRUE
"1445","P17","2-back",1,5,"H","target","target",578,TRUE
"1446","P17","2-back",1,6,"C","non-target","non-target",378,TRUE
"1447","P17","2-back",1,7,"F","non-target","non-target",490,TRUE
"1448","P17","2-back",1,8,"C","target","target",561,TRUE
"1449","P17","2-back",1,9,"T","non-target","non-target",369,TRUE
"1450","P17","2-back",1,10,"P","non-target","non-target",361,TRUE
"1451","P17","2-back",1,11,"F","non-target","non-target",385,TRUE
"1452","P17","2-back",1,12,"P","target","target",369,TRUE
"1453","P17","2-back",1,13,"F","target","target",393,TRUE
"1454","P17","2-back",1,14,"P","target","target",353,TRUE
"1455","P17","2-back",1,15,"V","non-target","non-target",377,TRUE
"1456","P17","2-back",1,16,"L","non-target","non-target",345,TRUE
"1457","P17","2-back",1,17,"K","non-target","non-target",312,TRUE
"1458","P17","2-back",1,18,"W","non-target","non-target",304,TRUE
"1459","P17","2-back",1,19,"K","target","target",529,TRUE
"1460","P17","2-back",1,20,"W","target","target",497,TRUE
"1461","P17","2-back",1,21,"K","target","target",353,TRUE
"1462","P17","2-back",1,22,"W","target","target",361,TRUE
"1463","P17","2-back",1,23,"K","target","target",345,TRUE
"1464","P17","2-back",1,24,"R","non-target","non-target",353,TRUE
"1465","P17","2-back",1,25,"Y","non-target","non-target",537,TRUE
"1466","P17","2-back",1,26,"G","non-target","non-target",363,TRUE
"1467","P17","2-back",1,27,"D","non-target","non-target",336,TRUE
"1468","P17","2-back",1,28,"C","non-target","non-target",504,TRUE
"1469","P17","2-back",1,29,"N","non-target","non-target",376,TRUE
"1470","P17","2-back",1,30,"T","non-target","non-target",520,TRUE
"1471","P17","2-back",2,1,"S","burn-in","non-target",811,TRUE
"1472","P17","2-back",2,2,"M","burn-in","non-target",691,TRUE
"1473","P17","2-back",2,3,"J","burn-in","non-target",538,TRUE
"1474","P17","2-back",2,4,"M","target","target",506,TRUE
"1475","P17","2-back",2,5,"J","target","target",346,TRUE
"1476","P17","2-back",2,6,"Q","non-target","non-target",371,TRUE
"1477","P17","2-back",2,7,"J","target","target",499,TRUE
"1478","P17","2-back",2,8,"Z","non-target","non-target",467,TRUE
"1479","P17","2-back",2,9,"B","non-target","non-target",515,TRUE
"1480","P17","2-back",2,10,"Z","target","target",587,TRUE
"1481","P17","2-back",2,11,"H","non-target","non-target",627,TRUE
"1482","P17","2-back",2,12,"C","non-target","non-target",506,TRUE
"1483","P17","2-back",2,13,"R","non-target","non-target",404,TRUE
"1484","P17","2-back",2,14,"C","target","target",650,TRUE
"1485","P17","2-back",2,15,"R","target","target",388,TRUE
"1486","P17","2-back",2,16,"V","non-target","non-target",394,TRUE
"1487","P17","2-back",2,17,"L","non-target","non-target",346,TRUE
"1488","P17","2-back",2,18,"V","target","target",378,TRUE
"1489","P17","2-back",2,19,"B","non-target","non-target",298,TRUE
"1490","P17","2-back",2,20,"V","target","target",330,TRUE
"1491","P17","2-back",2,21,"Y","non-target","non-target",394,TRUE
"1492","P17","2-back",2,22,"V","target","target",474,TRUE
"1493","P17","2-back",2,23,"D","non-target","non-target",634,TRUE
"1494","P17","2-back",2,24,"G","non-target","non-target",466,TRUE
"1495","P17","2-back",2,25,"Z","non-target","non-target",370,TRUE
"1496","P17","2-back",2,26,"F","non-target","non-target",595,TRUE
"1497","P17","2-back",2,27,"M","non-target","non-target",370,TRUE
"1498","P17","2-back",2,28,"N","non-target","non-target",378,TRUE
"1499","P17","2-back",2,29,"M","target","target",410,TRUE
"1500","P17","2-back",2,30,"T","non-target","non-target",434,TRUE
"1501","P17","2-back",3,1,"J","burn-in","non-target",783,TRUE
"1502","P17","2-back",3,2,"Q","burn-in","non-target",487,TRUE
"1503","P17","2-back",3,3,"H","burn-in","non-target",479,TRUE
"1504","P17","2-back",3,4,"W","non-target","non-target",576,TRUE
"1505","P17","2-back",3,5,"S","non-target","non-target",487,TRUE
"1506","P17","2-back",3,6,"K","non-target","non-target",447,TRUE
"1507","P17","2-back",3,7,"P","non-target","non-target",367,TRUE
"1508","P17","2-back",3,8,"C","non-target","non-target",326,TRUE
"1509","P17","2-back",3,9,"Y","non-target","non-target",414,TRUE
"1510","P17","2-back",3,10,"C","target","target",542,TRUE
"1511","P17","2-back",3,11,"W","non-target","non-target",414,TRUE
"1512","P17","2-back",3,12,"F","non-target","non-target",510,TRUE
"1513","P17","2-back",3,13,"W","target","target",350,TRUE
"1514","P17","2-back",3,14,"F","target","target",318,TRUE
"1515","P17","2-back",3,15,"W","target","target",343,TRUE
"1516","P17","2-back",3,16,"B","non-target","non-target",567,TRUE
"1517","P17","2-back",3,17,"W","target","target",423,TRUE
"1518","P17","2-back",3,18,"B","target","target",464,TRUE
"1519","P17","2-back",3,19,"D","non-target","non-target",398,TRUE
"1520","P17","2-back",3,20,"V","non-target","non-target",686,TRUE
"1521","P17","2-back",3,21,"D","target","target",422,TRUE
"1522","P17","2-back",3,22,"J","non-target","non-target",502,TRUE
"1523","P17","2-back",3,23,"D","target","target",334,TRUE
"1524","P17","2-back",3,24,"J","target","target",382,TRUE
"1525","P17","2-back",3,25,"H","non-target","non-target",502,TRUE
"1526","P17","2-back",3,26,"S","non-target","non-target",478,TRUE
"1527","P17","2-back",3,27,"R","non-target","non-target",446,TRUE
"1528","P17","2-back",3,28,"S","target","target",437,TRUE
"1529","P17","2-back",3,29,"G","non-target","non-target",421,TRUE
"1530","P17","2-back",3,30,"L","non-target","non-target",534,TRUE
"1531","P17","3-back",1,1,"D","burn-in",,,
"1532","P17","3-back",1,2,"P","burn-in","non-target",76,TRUE
"1533","P17","3-back",1,3,"G","burn-in","non-target",428,TRUE
"1534","P17","3-back",1,4,"M","non-target","non-target",363,TRUE
"1535","P17","3-back",1,5,"J","non-target","non-target",332,TRUE
"1536","P17","3-back",1,6,"G","target","target",372,TRUE
"1537","P17","3-back",1,7,"M","target","target",380,TRUE
"1538","P17","3-back",1,8,"H","non-target","non-target",548,TRUE
"1539","P17","3-back",1,9,"G","target","target",372,TRUE
"1540","P17","3-back",1,10,"M","target","target",468,TRUE
"1541","P17","3-back",1,11,"H","target","target",412,TRUE
"1542","P17","3-back",1,12,"Y","non-target","non-target",508,TRUE
"1543","P17","3-back",1,13,"C","non-target","non-target",419,TRUE
"1544","P17","3-back",1,14,"L","non-target","non-target",531,TRUE
"1545","P17","3-back",1,15,"Y","target","non-target",731,FALSE
"1546","P17","3-back",1,16,"C","target","non-target",732,FALSE
"1547","P17","3-back",1,17,"Q","non-target","non-target",731,TRUE
"1548","P17","3-back",1,18,"Z","non-target","non-target",355,TRUE
"1549","P17","3-back",1,19,"C","target","non-target",459,FALSE
"1550","P17","3-back",1,20,"W","non-target","non-target",451,TRUE
"1551","P17","3-back",1,21,"Z","target","target",548,TRUE
"1552","P17","3-back",1,22,"R","non-target","non-target",619,TRUE
"1553","P17","3-back",1,23,"N","non-target","non-target",491,TRUE
"1554","P17","3-back",1,24,"Z","target","target",595,TRUE
"1555","P17","3-back",1,25,"W","non-target","non-target",483,TRUE
"1556","P17","3-back",1,26,"M","non-target","non-target",363,TRUE
"1557","P17","3-back",1,27,"D","non-target","target",619,FALSE
"1558","P17","3-back",1,28,"N","non-target","target",539,FALSE
"1559","P17","3-back",1,29,"F","non-target","non-target",547,TRUE
"1560","P17","3-back",1,30,"S","non-target","non-target",619,TRUE
"1561","P17","3-back",2,1,"L","burn-in","non-target",642,TRUE
"1562","P17","3-back",2,2,"Y","burn-in","non-target",354,TRUE
"1563","P17","3-back",2,3,"C","burn-in","non-target",402,TRUE
"1564","P17","3-back",2,4,"K","non-target","non-target",819,TRUE
"1565","P17","3-back",2,5,"Y","target","target",755,TRUE
"1566","P17","3-back",2,6,"V","non-target","non-target",539,TRUE
"1567","P17","3-back",2,7,"J","non-target","non-target",603,TRUE
"1568","P17","3-back",2,8,"Y","target","target",523,TRUE
"1569","P17","3-back",2,9,"V","target","target",802,TRUE
"1570","P17","3-back",2,10,"J","target","target",698,TRUE
"1571","P17","3-back",2,11,"Z","non-target","non-target",514,TRUE
"1572","P17","3-back",2,12,"P","non-target","non-target",690,TRUE
"1573","P17","3-back",2,13,"J","target","target",546,TRUE
"1574","P17","3-back",2,14,"Q","non-target","non-target",482,TRUE
"1575","P17","3-back",2,15,"R","non-target","non-target",562,TRUE
"1576","P17","3-back",2,16,"T","non-target","non-target",370,TRUE
"1577","P17","3-back",2,17,"Q","target","target",322,TRUE
"1578","P17","3-back",2,18,"G","non-target","non-target",642,TRUE
"1579","P17","3-back",2,19,"T","target","target",802,TRUE
"1580","P17","3-back",2,20,"Q","target","target",450,TRUE
"1581","P17","3-back",2,21,"B","non-target","non-target",426,TRUE
"1582","P17","3-back",2,22,"H","non-target","non-target",442,TRUE
"1583","P17","3-back",2,23,"Q","target","target",291,TRUE
"1584","P17","3-back",2,24,"Q","non-target","non-target",586,TRUE
"1585","P17","3-back",2,25,"H","target","target",434,TRUE
"1586","P17","3-back",2,26,"M","non-target","non-target",394,TRUE
"1587","P17","3-back",2,27,"T","non-target","non-target",370,TRUE
"1588","P17","3-back",2,28,"Z","non-target","non-target",497,TRUE
"1589","P17","3-back",2,29,"C","non-target","non-target",489,TRUE
"1590","P17","3-back",2,30,"H","non-target","non-target",713,TRUE
"1591","P17","3-back",3,1,"S","burn-in","non-target",849,TRUE
"1592","P17","3-back",3,2,"J","burn-in","non-target",337,TRUE
"1593","P17","3-back",3,3,"N","burn-in","non-target",394,TRUE
"1594","P17","3-back",3,4,"S","target","target",386,TRUE
"1595","P17","3-back",3,5,"J","target","target",370,TRUE
"1596","P17","3-back",3,6,"V","non-target","non-target",481,TRUE
"1597","P17","3-back",3,7,"S","target","target",369,TRUE
"1598","P17","3-back",3,8,"G","non-target","non-target",313,TRUE
"1599","P17","3-back",3,9,"W","non-target","non-target",425,TRUE
"1600","P17","3-back",3,10,"S","target","target",681,TRUE
"1601","P17","3-back",3,11,"Y","non-target","non-target",497,TRUE
"1602","P17","3-back",3,12,"B","non-target","non-target",433,TRUE
"1603","P17","3-back",3,13,"F","non-target","non-target",329,TRUE
"1604","P17","3-back",3,14,"Y","target","target",521,TRUE
"1605","P17","3-back",3,15,"L","non-target","non-target",473,TRUE
"1606","P17","3-back",3,16,"F","target","target",352,TRUE
"1607","P17","3-back",3,17,"Y","target","target",368,TRUE
"1608","P17","3-back",3,18,"K","non-target","non-target",320,TRUE
"1609","P17","3-back",3,19,"P","non-target","non-target",329,TRUE
"1610","P17","3-back",3,20,"D","non-target","non-target",433,TRUE
"1611","P17","3-back",3,21,"K","target","target",307,TRUE
"1612","P17","3-back",3,22,"R","non-target","non-target",401,TRUE
"1613","P17","3-back",3,23,"D","target","target",489,TRUE
"1614","P17","3-back",3,24,"F","non-target","non-target",529,TRUE
"1615","P17","3-back",3,25,"L","non-target","non-target",688,TRUE
"1616","P17","3-back",3,26,"S","non-target","non-target",488,TRUE
